#,,,,,,,,,,,,,,,,,,,,,,
# Results on Sun,13 Apr 2025 23:25:34 GMT,,,,,,,,,,,,,,,,,,,,,
# USER AGENT: Mozilla/5.0 (Macintosh; Intel Mac OS X 10_15_7) AppleWebKit/537.36 (KHTML,like Gecko) Chrome/135.0.0.0 Safari/537.36,,,,,,,,,,,,,,,,,,,,,
# Design number was non-random = 1,,,,,,,,,,,,,,,,,,,,,,
#,,,,,,,,,,,,,,,,,,,,,,
# Columns below this comment are as follows:,,,,,,,,,,,,,,,,,,,,,,
# 1. Results reception time.,,,,,,,,,,,,,,,,,,,,,,
# 2. MD5 hash of participant's IP address.,,,,,,,,,,,,,,,,,,,,,,
# 3. Controller name.,,,,,,,,,,,,,,,,,,,,,,
# 4. Order number of item.,,,,,,,,,,,,,,,,,,,,,,
# 5. Inner element number.,,,,,,,,,,,,,,,,,,,,,,
# 6. Label.,,,,,,,,,,,,,,,,,,,,,,
# 7. Latin Square Group.,,,,,,,,,,,,,,,,,,,,,,
# 8. PennElementType.,,,,,,,,,,,,,,,,,,,,,,
# 9. PennElementName.,,,,,,,,,,,,,,,,,,,,,,
# 10. Parameter.,,,,,,,,,,,,,,,,,,,,,,
# 11. Value.,,,,,,,,,,,,,,,,,,,,,,
# 12. EventTime.,,,,,,,,,,,,,,,,,,,,,,
# 13. PROLIFIC_ID.,,,,,,,,,,,,,,,,,,,,,,
# 14. Comments.,,,,,,,,,,,,,,,,,,,,,,
1744586734,20fc610a4c308799f2f7cfd24025ba8e,PennController,82,0,instructions,NULL,PennController,0,_Trial_,Start,1744583498027,595bee9282be5500017ad683,NULL,,,,,,,,,
1744586734,20fc610a4c308799f2f7cfd24025ba8e,PennController,82,0,instructions,NULL,PennController,0,_Header_,Start,1744583498027,595bee9282be5500017ad683,NULL,,,,,,,,,
1744586734,20fc610a4c308799f2f7cfd24025ba8e,PennController,82,0,instructions,NULL,PennController,0,_Header_,End,1744583498027,595bee9282be5500017ad683,NULL,,,,,,,,,
1744586734,20fc610a4c308799f2f7cfd24025ba8e,PennController,82,0,instructions,NULL,Html,instructions,name,David Palmieri,1744583693290,595bee9282be5500017ad683,text input,,,,,,,,,
1744586734,20fc610a4c308799f2f7cfd24025ba8e,PennController,82,0,instructions,NULL,Html,instructions,consent,checked,1744583693290,595bee9282be5500017ad683,checkbox,,,,,,,,,
1744586734,20fc610a4c308799f2f7cfd24025ba8e,PennController,82,0,instructions,NULL,Html,instructions,NativeEnglish,unchecked,1744583693290,595bee9282be5500017ad683,checkbox,,,,,,,,,
1744586734,20fc610a4c308799f2f7cfd24025ba8e,PennController,82,0,instructions,NULL,PennController,0,_Trial_,End,1744583693290,595bee9282be5500017ad683,NULL,,,,,,,,,
# 14. num.,,,,,,,,,,,,,,,,,,,,,,
# 15. item.,,,,,,,,,,,,,,,,,,,,,,
# 16. Group.,,,,,,,,,,,,,,,,,,,,,,
# 17. isCrit.,,,,,,,,,,,,,,,,,,,,,,
# 18. isLeg.,,,,,,,,,,,,,,,,,,,,,,
# 19. sentNum.,,,,,,,,,,,,,,,,,,,,,,
# 20. text.,,,,,,,,,,,,,,,,,,,,,,
# 21. author.,,,,,,,,,,,,,,,,,,,,,,
# 22. fileName.,,,,,,,,,,,,,,,,,,,,,,
# 23. Comments.,,,,,,,,,,,,,,,,,,,,,,
1744586734,20fc610a4c308799f2f7cfd24025ba8e,PennController,29,0,fill,NULL,PennController,30,_Trial_,Start,1744583693293,595bee9282be5500017ad683,108,28,2,fill,leg,_28,Before the recital%2C the pianist met with a beautician to prepare for her performance.,83,fill_28_leg_sent_83.png,NULL
1744586734,20fc610a4c308799f2f7cfd24025ba8e,PennController,29,0,fill,NULL,PennController,30,_Header_,Start,1744583693293,595bee9282be5500017ad683,108,28,2,fill,leg,_28,Before the recital%2C the pianist met with a beautician to prepare for her performance.,83,fill_28_leg_sent_83.png,NULL
1744586734,20fc610a4c308799f2f7cfd24025ba8e,PennController,29,0,fill,NULL,PennController,30,_Header_,End,1744583693293,595bee9282be5500017ad683,108,28,2,fill,leg,_28,Before the recital%2C the pianist met with a beautician to prepare for her performance.,83,fill_28_leg_sent_83.png,NULL
1744586734,20fc610a4c308799f2f7cfd24025ba8e,PennController,29,0,fill,NULL,TextInput,q1,Final,Before the reital%2C the pianist met with a beautician to prepare for her performance.,1744583726971,595bee9282be5500017ad683,108,28,2,fill,leg,_28,Before the recital%2C the pianist met with a beautician to prepare for her performance.,83,fill_28_leg_sent_83.png,NULL
1744586734,20fc610a4c308799f2f7cfd24025ba8e,PennController,29,0,fill,NULL,PennController,30,_Trial_,End,1744583726971,595bee9282be5500017ad683,108,28,2,fill,leg,_28,Before the recital%2C the pianist met with a beautician to prepare for her performance.,83,fill_28_leg_sent_83.png,NULL
1744586734,20fc610a4c308799f2f7cfd24025ba8e,PennController,80,0,fill,NULL,PennController,81,_Trial_,Start,1744583726973,595bee9282be5500017ad683,159,79,2,fill,leg,_79,The professor was criticized by the TA.,99,fill_79_leg_sent_99.png,NULL
1744586734,20fc610a4c308799f2f7cfd24025ba8e,PennController,80,0,fill,NULL,PennController,81,_Header_,Start,1744583726973,595bee9282be5500017ad683,159,79,2,fill,leg,_79,The professor was criticized by the TA.,99,fill_79_leg_sent_99.png,NULL
1744586734,20fc610a4c308799f2f7cfd24025ba8e,PennController,80,0,fill,NULL,PennController,81,_Header_,End,1744583726973,595bee9282be5500017ad683,159,79,2,fill,leg,_79,The professor was criticized by the TA.,99,fill_79_leg_sent_99.png,NULL
1744586734,20fc610a4c308799f2f7cfd24025ba8e,PennController,80,0,fill,NULL,TextInput,q1,Final,The professor criticized by the TA.,1744583738304,595bee9282be5500017ad683,159,79,2,fill,leg,_79,The professor was criticized by the TA.,99,fill_79_leg_sent_99.png,NULL
1744586734,20fc610a4c308799f2f7cfd24025ba8e,PennController,80,0,fill,NULL,PennController,81,_Trial_,End,1744583738304,595bee9282be5500017ad683,159,79,2,fill,leg,_79,The professor was criticized by the TA.,99,fill_79_leg_sent_99.png,NULL
1744586734,20fc610a4c308799f2f7cfd24025ba8e,PennController,53,0,fill,NULL,PennController,54,_Trial_,Start,1744583738306,595bee9282be5500017ad683,132,52,2,fill,leg,_52,The recruiter stapled the ad to a bulletin board in the corridor.,91,fill_52_leg_sent_91.png,NULL
1744586734,20fc610a4c308799f2f7cfd24025ba8e,PennController,53,0,fill,NULL,PennController,54,_Header_,Start,1744583738306,595bee9282be5500017ad683,132,52,2,fill,leg,_52,The recruiter stapled the ad to a bulletin board in the corridor.,91,fill_52_leg_sent_91.png,NULL
1744586734,20fc610a4c308799f2f7cfd24025ba8e,PennController,53,0,fill,NULL,PennController,54,_Header_,End,1744583738306,595bee9282be5500017ad683,132,52,2,fill,leg,_52,The recruiter stapled the ad to a bulletin board in the corridor.,91,fill_52_leg_sent_91.png,NULL
1744586734,20fc610a4c308799f2f7cfd24025ba8e,PennController,53,0,fill,NULL,TextInput,q1,Final,The recruiter stapled the ad to a bulletin board in the corridor.,1744583765504,595bee9282be5500017ad683,132,52,2,fill,leg,_52,The recruiter stapled the ad to a bulletin board in the corridor.,91,fill_52_leg_sent_91.png,NULL
1744586734,20fc610a4c308799f2f7cfd24025ba8e,PennController,53,0,fill,NULL,PennController,54,_Trial_,End,1744583765504,595bee9282be5500017ad683,132,52,2,fill,leg,_52,The recruiter stapled the ad to a bulletin board in the corridor.,91,fill_52_leg_sent_91.png,NULL
1744586734,20fc610a4c308799f2f7cfd24025ba8e,PennController,2,0,crit,NULL,PennController,3,_Trial_,Start,1744583765506,595bee9282be5500017ad683,81,1,2,crit,ill,_01,Mom adopted a dog but the baby was upset by all the banks.,68,crit_01_ill_sent_68.png,NULL
1744586734,20fc610a4c308799f2f7cfd24025ba8e,PennController,2,0,crit,NULL,PennController,3,_Header_,Start,1744583765506,595bee9282be5500017ad683,81,1,2,crit,ill,_01,Mom adopted a dog but the baby was upset by all the banks.,68,crit_01_ill_sent_68.png,NULL
1744586734,20fc610a4c308799f2f7cfd24025ba8e,PennController,2,0,crit,NULL,PennController,3,_Header_,End,1744583765506,595bee9282be5500017ad683,81,1,2,crit,ill,_01,Mom adopted a dog but the baby was upset by all the banks.,68,crit_01_ill_sent_68.png,NULL
1744586734,20fc610a4c308799f2f7cfd24025ba8e,PennController,2,0,crit,NULL,TextInput,q1,Final,Mom adopted a dog but the baby was upset by all the barks.,1744583795004,595bee9282be5500017ad683,81,1,2,crit,ill,_01,Mom adopted a dog but the baby was upset by all the banks.,68,crit_01_ill_sent_68.png,NULL
1744586734,20fc610a4c308799f2f7cfd24025ba8e,PennController,2,0,crit,NULL,PennController,3,_Trial_,End,1744583795005,595bee9282be5500017ad683,81,1,2,crit,ill,_01,Mom adopted a dog but the baby was upset by all the banks.,68,crit_01_ill_sent_68.png,NULL
1744586734,20fc610a4c308799f2f7cfd24025ba8e,PennController,44,0,fill,NULL,PennController,45,_Trial_,Start,1744583795006,595bee9282be5500017ad683,123,43,2,fill,leg,_43,The advisee opened a document for the visitor with trepidation.,30,fill_43_leg_sent_30.png,NULL
1744586734,20fc610a4c308799f2f7cfd24025ba8e,PennController,44,0,fill,NULL,PennController,45,_Header_,Start,1744583795006,595bee9282be5500017ad683,123,43,2,fill,leg,_43,The advisee opened a document for the visitor with trepidation.,30,fill_43_leg_sent_30.png,NULL
1744586734,20fc610a4c308799f2f7cfd24025ba8e,PennController,44,0,fill,NULL,PennController,45,_Header_,End,1744583795006,595bee9282be5500017ad683,123,43,2,fill,leg,_43,The advisee opened a document for the visitor with trepidation.,30,fill_43_leg_sent_30.png,NULL
1744586734,20fc610a4c308799f2f7cfd24025ba8e,PennController,44,0,fill,NULL,TextInput,q1,Final,The advisee opened a document for the visitor with trepidation.,1744583818470,595bee9282be5500017ad683,123,43,2,fill,leg,_43,The advisee opened a document for the visitor with trepidation.,30,fill_43_leg_sent_30.png,NULL
1744586734,20fc610a4c308799f2f7cfd24025ba8e,PennController,44,0,fill,NULL,PennController,45,_Trial_,End,1744583818470,595bee9282be5500017ad683,123,43,2,fill,leg,_43,The advisee opened a document for the visitor with trepidation.,30,fill_43_leg_sent_30.png,NULL
1744586734,20fc610a4c308799f2f7cfd24025ba8e,PennController,36,0,fill,NULL,PennController,37,_Trial_,Start,1744583818471,595bee9282be5500017ad683,115,35,2,fill,leg,_35,When she said that she worked for the government she misled a juryman.,73,fill_35_leg_sent_73.png,NULL
1744586734,20fc610a4c308799f2f7cfd24025ba8e,PennController,36,0,fill,NULL,PennController,37,_Header_,Start,1744583818471,595bee9282be5500017ad683,115,35,2,fill,leg,_35,When she said that she worked for the government she misled a juryman.,73,fill_35_leg_sent_73.png,NULL
1744586734,20fc610a4c308799f2f7cfd24025ba8e,PennController,36,0,fill,NULL,PennController,37,_Header_,End,1744583818471,595bee9282be5500017ad683,115,35,2,fill,leg,_35,When she said that she worked for the government she misled a juryman.,73,fill_35_leg_sent_73.png,NULL
1744586734,20fc610a4c308799f2f7cfd24025ba8e,PennController,36,0,fill,NULL,TextInput,q1,Final,When she said that she worked fore the government she misled a juryman.,1744583845137,595bee9282be5500017ad683,115,35,2,fill,leg,_35,When she said that she worked for the government she misled a juryman.,73,fill_35_leg_sent_73.png,NULL
1744586734,20fc610a4c308799f2f7cfd24025ba8e,PennController,36,0,fill,NULL,PennController,37,_Trial_,End,1744583845138,595bee9282be5500017ad683,115,35,2,fill,leg,_35,When she said that she worked for the government she misled a juryman.,73,fill_35_leg_sent_73.png,NULL
1744586734,20fc610a4c308799f2f7cfd24025ba8e,PennController,52,0,fill,NULL,PennController,53,_Trial_,Start,1744583845139,595bee9282be5500017ad683,131,51,2,fill,leg,_51,During the wedding%2C the cameraman was paid to follow a bridesmaid down the aisle with his camera.,91,fill_51_leg_sent_91.png,NULL
1744586734,20fc610a4c308799f2f7cfd24025ba8e,PennController,52,0,fill,NULL,PennController,53,_Header_,Start,1744583845139,595bee9282be5500017ad683,131,51,2,fill,leg,_51,During the wedding%2C the cameraman was paid to follow a bridesmaid down the aisle with his camera.,91,fill_51_leg_sent_91.png,NULL
1744586734,20fc610a4c308799f2f7cfd24025ba8e,PennController,52,0,fill,NULL,PennController,53,_Header_,End,1744583845139,595bee9282be5500017ad683,131,51,2,fill,leg,_51,During the wedding%2C the cameraman was paid to follow a bridesmaid down the aisle with his camera.,91,fill_51_leg_sent_91.png,NULL
1744586734,20fc610a4c308799f2f7cfd24025ba8e,PennController,52,0,fill,NULL,TextInput,q1,Final,During the wedding%2C the cameraman was paid to follow a bridesmaid down the aisle with his camera.,1744583869604,595bee9282be5500017ad683,131,51,2,fill,leg,_51,During the wedding%2C the cameraman was paid to follow a bridesmaid down the aisle with his camera.,91,fill_51_leg_sent_91.png,NULL
1744586734,20fc610a4c308799f2f7cfd24025ba8e,PennController,52,0,fill,NULL,PennController,53,_Trial_,End,1744583869604,595bee9282be5500017ad683,131,51,2,fill,leg,_51,During the wedding%2C the cameraman was paid to follow a bridesmaid down the aisle with his camera.,91,fill_51_leg_sent_91.png,NULL
1744586734,20fc610a4c308799f2f7cfd24025ba8e,PennController,51,0,fill,NULL,PennController,52,_Trial_,Start,1744583869606,595bee9282be5500017ad683,130,50,2,fill,leg,_50,The trainer filled a bag with ice for the hurt client.,47,fill_50_leg_sent_47.png,NULL
1744586734,20fc610a4c308799f2f7cfd24025ba8e,PennController,51,0,fill,NULL,PennController,52,_Header_,Start,1744583869606,595bee9282be5500017ad683,130,50,2,fill,leg,_50,The trainer filled a bag with ice for the hurt client.,47,fill_50_leg_sent_47.png,NULL
1744586734,20fc610a4c308799f2f7cfd24025ba8e,PennController,51,0,fill,NULL,PennController,52,_Header_,End,1744583869606,595bee9282be5500017ad683,130,50,2,fill,leg,_50,The trainer filled a bag with ice for the hurt client.,47,fill_50_leg_sent_47.png,NULL
1744586734,20fc610a4c308799f2f7cfd24025ba8e,PennController,51,0,fill,NULL,TextInput,q1,Final,The trainer filled a bag with ice for the hurt client.,1744583882771,595bee9282be5500017ad683,130,50,2,fill,leg,_50,The trainer filled a bag with ice for the hurt client.,47,fill_50_leg_sent_47.png,NULL
1744586734,20fc610a4c308799f2f7cfd24025ba8e,PennController,51,0,fill,NULL,PennController,52,_Trial_,End,1744583882771,595bee9282be5500017ad683,130,50,2,fill,leg,_50,The trainer filled a bag with ice for the hurt client.,47,fill_50_leg_sent_47.png,NULL
1744586734,20fc610a4c308799f2f7cfd24025ba8e,PennController,17,0,crit,NULL,PennController,18,_Trial_,Start,1744583882772,595bee9282be5500017ad683,96,16,2,crit,ill,_16,He decided to warm his boss about the issue.,77,crit_16_ill_sent_77.png,NULL
1744586734,20fc610a4c308799f2f7cfd24025ba8e,PennController,17,0,crit,NULL,PennController,18,_Header_,Start,1744583882772,595bee9282be5500017ad683,96,16,2,crit,ill,_16,He decided to warm his boss about the issue.,77,crit_16_ill_sent_77.png,NULL
1744586734,20fc610a4c308799f2f7cfd24025ba8e,PennController,17,0,crit,NULL,PennController,18,_Header_,End,1744583882772,595bee9282be5500017ad683,96,16,2,crit,ill,_16,He decided to warm his boss about the issue.,77,crit_16_ill_sent_77.png,NULL
1744586734,20fc610a4c308799f2f7cfd24025ba8e,PennController,17,0,crit,NULL,TextInput,q1,Final,He decided to warn his boss about the issue.,1744583899871,595bee9282be5500017ad683,96,16,2,crit,ill,_16,He decided to warm his boss about the issue.,77,crit_16_ill_sent_77.png,NULL
1744586734,20fc610a4c308799f2f7cfd24025ba8e,PennController,17,0,crit,NULL,PennController,18,_Trial_,End,1744583899872,595bee9282be5500017ad683,96,16,2,crit,ill,_16,He decided to warm his boss about the issue.,77,crit_16_ill_sent_77.png,NULL
1744586734,20fc610a4c308799f2f7cfd24025ba8e,PennController,41,0,fill,NULL,PennController,42,_Trial_,Start,1744583899872,595bee9282be5500017ad683,120,40,2,fill,leg,_40,Karen was irritated by the preacher%2C because she was used to shorter sermons.,73,fill_40_leg_sent_73.png,NULL
1744586734,20fc610a4c308799f2f7cfd24025ba8e,PennController,41,0,fill,NULL,PennController,42,_Header_,Start,1744583899872,595bee9282be5500017ad683,120,40,2,fill,leg,_40,Karen was irritated by the preacher%2C because she was used to shorter sermons.,73,fill_40_leg_sent_73.png,NULL
1744586734,20fc610a4c308799f2f7cfd24025ba8e,PennController,41,0,fill,NULL,PennController,42,_Header_,End,1744583899872,595bee9282be5500017ad683,120,40,2,fill,leg,_40,Karen was irritated by the preacher%2C because she was used to shorter sermons.,73,fill_40_leg_sent_73.png,NULL
1744586734,20fc610a4c308799f2f7cfd24025ba8e,PennController,41,0,fill,NULL,TextInput,q1,Final,Karen was irritated by tyhe preacher%2C because she was used to shorter sermons.,1744583922804,595bee9282be5500017ad683,120,40,2,fill,leg,_40,Karen was irritated by the preacher%2C because she was used to shorter sermons.,73,fill_40_leg_sent_73.png,NULL
1744586734,20fc610a4c308799f2f7cfd24025ba8e,PennController,41,0,fill,NULL,PennController,42,_Trial_,End,1744583922804,595bee9282be5500017ad683,120,40,2,fill,leg,_40,Karen was irritated by the preacher%2C because she was used to shorter sermons.,73,fill_40_leg_sent_73.png,NULL
1744586734,20fc610a4c308799f2f7cfd24025ba8e,PennController,58,0,fill,NULL,PennController,59,_Trial_,Start,1744583922805,595bee9282be5500017ad683,137,57,2,fill,leg,_57,The intern asked a programmer to edit the code because it was due the next day.,107,fill_57_leg_sent_107.png,NULL
1744586734,20fc610a4c308799f2f7cfd24025ba8e,PennController,58,0,fill,NULL,PennController,59,_Header_,Start,1744583922805,595bee9282be5500017ad683,137,57,2,fill,leg,_57,The intern asked a programmer to edit the code because it was due the next day.,107,fill_57_leg_sent_107.png,NULL
1744586734,20fc610a4c308799f2f7cfd24025ba8e,PennController,58,0,fill,NULL,PennController,59,_Header_,End,1744583922805,595bee9282be5500017ad683,137,57,2,fill,leg,_57,The intern asked a programmer to edit the code because it was due the next day.,107,fill_57_leg_sent_107.png,NULL
1744586734,20fc610a4c308799f2f7cfd24025ba8e,PennController,58,0,fill,NULL,TextInput,q1,Final,The intern asked a programmer to edit the code because it was due the next day.,1744583948953,595bee9282be5500017ad683,137,57,2,fill,leg,_57,The intern asked a programmer to edit the code because it was due the next day.,107,fill_57_leg_sent_107.png,NULL
1744586734,20fc610a4c308799f2f7cfd24025ba8e,PennController,58,0,fill,NULL,PennController,59,_Trial_,End,1744583948954,595bee9282be5500017ad683,137,57,2,fill,leg,_57,The intern asked a programmer to edit the code because it was due the next day.,107,fill_57_leg_sent_107.png,NULL
1744586734,20fc610a4c308799f2f7cfd24025ba8e,PennController,3,0,crit,NULL,PennController,4,_Trial_,Start,1744583948955,595bee9282be5500017ad683,82,2,2,crit,ill,_02,If the knight sees the beauty of the princess%2C his heart is going to smell.,8,crit_02_ill_sent_8.png,NULL
1744586734,20fc610a4c308799f2f7cfd24025ba8e,PennController,3,0,crit,NULL,PennController,4,_Header_,Start,1744583948955,595bee9282be5500017ad683,82,2,2,crit,ill,_02,If the knight sees the beauty of the princess%2C his heart is going to smell.,8,crit_02_ill_sent_8.png,NULL
1744586734,20fc610a4c308799f2f7cfd24025ba8e,PennController,3,0,crit,NULL,PennController,4,_Header_,End,1744583948955,595bee9282be5500017ad683,82,2,2,crit,ill,_02,If the knight sees the beauty of the princess%2C his heart is going to smell.,8,crit_02_ill_sent_8.png,NULL
1744586734,20fc610a4c308799f2f7cfd24025ba8e,PennController,3,0,crit,NULL,TextInput,q1,Final,If the knight see the beauty of the princess%2C his heart is going to smell.,1744583976735,595bee9282be5500017ad683,82,2,2,crit,ill,_02,If the knight sees the beauty of the princess%2C his heart is going to smell.,8,crit_02_ill_sent_8.png,NULL
1744586734,20fc610a4c308799f2f7cfd24025ba8e,PennController,3,0,crit,NULL,PennController,4,_Trial_,End,1744583976735,595bee9282be5500017ad683,82,2,2,crit,ill,_02,If the knight sees the beauty of the princess%2C his heart is going to smell.,8,crit_02_ill_sent_8.png,NULL
1744586734,20fc610a4c308799f2f7cfd24025ba8e,PennController,27,0,fill,NULL,PennController,28,_Trial_,Start,1744583976736,595bee9282be5500017ad683,106,26,2,fill,leg,_26,For several months the secret agent followed a baroness.,89,fill_26_leg_sent_89.png,NULL
1744586734,20fc610a4c308799f2f7cfd24025ba8e,PennController,27,0,fill,NULL,PennController,28,_Header_,Start,1744583976736,595bee9282be5500017ad683,106,26,2,fill,leg,_26,For several months the secret agent followed a baroness.,89,fill_26_leg_sent_89.png,NULL
1744586734,20fc610a4c308799f2f7cfd24025ba8e,PennController,27,0,fill,NULL,PennController,28,_Header_,End,1744583976736,595bee9282be5500017ad683,106,26,2,fill,leg,_26,For several months the secret agent followed a baroness.,89,fill_26_leg_sent_89.png,NULL
1744586734,20fc610a4c308799f2f7cfd24025ba8e,PennController,27,0,fill,NULL,TextInput,q1,Final,For several months the secret agent followed a baroness.,1744583996285,595bee9282be5500017ad683,106,26,2,fill,leg,_26,For several months the secret agent followed a baroness.,89,fill_26_leg_sent_89.png,NULL
1744586734,20fc610a4c308799f2f7cfd24025ba8e,PennController,27,0,fill,NULL,PennController,28,_Trial_,End,1744583996285,595bee9282be5500017ad683,106,26,2,fill,leg,_26,For several months the secret agent followed a baroness.,89,fill_26_leg_sent_89.png,NULL
1744586734,20fc610a4c308799f2f7cfd24025ba8e,PennController,60,0,fill,NULL,PennController,61,_Trial_,Start,1744583996286,595bee9282be5500017ad683,139,59,2,fill,leg,_59,The beekeeper carefully selected a honeycomb from a hive of swarming bees.,91,fill_59_leg_sent_91.png,NULL
1744586734,20fc610a4c308799f2f7cfd24025ba8e,PennController,60,0,fill,NULL,PennController,61,_Header_,Start,1744583996286,595bee9282be5500017ad683,139,59,2,fill,leg,_59,The beekeeper carefully selected a honeycomb from a hive of swarming bees.,91,fill_59_leg_sent_91.png,NULL
1744586734,20fc610a4c308799f2f7cfd24025ba8e,PennController,60,0,fill,NULL,PennController,61,_Header_,End,1744583996286,595bee9282be5500017ad683,139,59,2,fill,leg,_59,The beekeeper carefully selected a honeycomb from a hive of swarming bees.,91,fill_59_leg_sent_91.png,NULL
1744586734,20fc610a4c308799f2f7cfd24025ba8e,PennController,60,0,fill,NULL,TextInput,q1,Final,The beekeeper carefully selected a honeycomb from a hive of swarming bees.,1744584021352,595bee9282be5500017ad683,139,59,2,fill,leg,_59,The beekeeper carefully selected a honeycomb from a hive of swarming bees.,91,fill_59_leg_sent_91.png,NULL
1744586734,20fc610a4c308799f2f7cfd24025ba8e,PennController,60,0,fill,NULL,PennController,61,_Trial_,End,1744584021352,595bee9282be5500017ad683,139,59,2,fill,leg,_59,The beekeeper carefully selected a honeycomb from a hive of swarming bees.,91,fill_59_leg_sent_91.png,NULL
1744586734,20fc610a4c308799f2f7cfd24025ba8e,PennController,26,0,fill,NULL,PennController,27,_Trial_,Start,1744584021354,595bee9282be5500017ad683,105,25,2,fill,leg,_25,After the earthquake%2C the toddler held a teddybear because he was scared.,83,fill_25_leg_sent_83.png,NULL
1744586734,20fc610a4c308799f2f7cfd24025ba8e,PennController,26,0,fill,NULL,PennController,27,_Header_,Start,1744584021354,595bee9282be5500017ad683,105,25,2,fill,leg,_25,After the earthquake%2C the toddler held a teddybear because he was scared.,83,fill_25_leg_sent_83.png,NULL
1744586734,20fc610a4c308799f2f7cfd24025ba8e,PennController,26,0,fill,NULL,PennController,27,_Header_,End,1744584021354,595bee9282be5500017ad683,105,25,2,fill,leg,_25,After the earthquake%2C the toddler held a teddybear because he was scared.,83,fill_25_leg_sent_83.png,NULL
1744586734,20fc610a4c308799f2f7cfd24025ba8e,PennController,26,0,fill,NULL,TextInput,q1,Final,After the earthquake%2C the toddler held a teddybear because he was scared.,1744584044616,595bee9282be5500017ad683,105,25,2,fill,leg,_25,After the earthquake%2C the toddler held a teddybear because he was scared.,83,fill_25_leg_sent_83.png,NULL
1744586734,20fc610a4c308799f2f7cfd24025ba8e,PennController,26,0,fill,NULL,PennController,27,_Trial_,End,1744584044616,595bee9282be5500017ad683,105,25,2,fill,leg,_25,After the earthquake%2C the toddler held a teddybear because he was scared.,83,fill_25_leg_sent_83.png,NULL
1744586734,20fc610a4c308799f2f7cfd24025ba8e,PennController,16,0,crit,NULL,PennController,17,_Trial_,Start,1744584044618,595bee9282be5500017ad683,95,15,2,crit,ill,_15,Jamila halted an onion because using a full one was unnecessary.,104,crit_15_ill_sent_104.png,NULL
1744586734,20fc610a4c308799f2f7cfd24025ba8e,PennController,16,0,crit,NULL,PennController,17,_Header_,Start,1744584044618,595bee9282be5500017ad683,95,15,2,crit,ill,_15,Jamila halted an onion because using a full one was unnecessary.,104,crit_15_ill_sent_104.png,NULL
1744586734,20fc610a4c308799f2f7cfd24025ba8e,PennController,16,0,crit,NULL,PennController,17,_Header_,End,1744584044618,595bee9282be5500017ad683,95,15,2,crit,ill,_15,Jamila halted an onion because using a full one was unnecessary.,104,crit_15_ill_sent_104.png,NULL
1744586734,20fc610a4c308799f2f7cfd24025ba8e,PennController,16,0,crit,NULL,TextInput,q1,Final,Jamila halted an onion because using a full one was unneccessary.,1744584067616,595bee9282be5500017ad683,95,15,2,crit,ill,_15,Jamila halted an onion because using a full one was unnecessary.,104,crit_15_ill_sent_104.png,NULL
1744586734,20fc610a4c308799f2f7cfd24025ba8e,PennController,16,0,crit,NULL,PennController,17,_Trial_,End,1744584067616,595bee9282be5500017ad683,95,15,2,crit,ill,_15,Jamila halted an onion because using a full one was unnecessary.,104,crit_15_ill_sent_104.png,NULL
1744586734,20fc610a4c308799f2f7cfd24025ba8e,PennController,47,0,fill,NULL,PennController,48,_Trial_,Start,1744584067618,595bee9282be5500017ad683,126,46,2,fill,leg,_46,Because the victim's motorcycle had been destroyed%2C the insurer paid him.,43,fill_46_leg_sent_43.png,NULL
1744586734,20fc610a4c308799f2f7cfd24025ba8e,PennController,47,0,fill,NULL,PennController,48,_Header_,Start,1744584067618,595bee9282be5500017ad683,126,46,2,fill,leg,_46,Because the victim's motorcycle had been destroyed%2C the insurer paid him.,43,fill_46_leg_sent_43.png,NULL
1744586734,20fc610a4c308799f2f7cfd24025ba8e,PennController,47,0,fill,NULL,PennController,48,_Header_,End,1744584067618,595bee9282be5500017ad683,126,46,2,fill,leg,_46,Because the victim's motorcycle had been destroyed%2C the insurer paid him.,43,fill_46_leg_sent_43.png,NULL
1744586734,20fc610a4c308799f2f7cfd24025ba8e,PennController,47,0,fill,NULL,TextInput,q1,Final,Because the vicim's motorcycle had been destroyed%2C the insurer paid him.,1744584088815,595bee9282be5500017ad683,126,46,2,fill,leg,_46,Because the victim's motorcycle had been destroyed%2C the insurer paid him.,43,fill_46_leg_sent_43.png,NULL
1744586734,20fc610a4c308799f2f7cfd24025ba8e,PennController,47,0,fill,NULL,PennController,48,_Trial_,End,1744584088815,595bee9282be5500017ad683,126,46,2,fill,leg,_46,Because the victim's motorcycle had been destroyed%2C the insurer paid him.,43,fill_46_leg_sent_43.png,NULL
1744586734,20fc610a4c308799f2f7cfd24025ba8e,PennController,77,0,fill,NULL,PennController,78,_Trial_,Start,1744584088817,595bee9282be5500017ad683,156,76,2,fill,leg,_76,The girl was helped by the boy.,9,fill_76_leg_sent_9.png,NULL
1744586734,20fc610a4c308799f2f7cfd24025ba8e,PennController,77,0,fill,NULL,PennController,78,_Header_,Start,1744584088817,595bee9282be5500017ad683,156,76,2,fill,leg,_76,The girl was helped by the boy.,9,fill_76_leg_sent_9.png,NULL
1744586734,20fc610a4c308799f2f7cfd24025ba8e,PennController,77,0,fill,NULL,PennController,78,_Header_,End,1744584088817,595bee9282be5500017ad683,156,76,2,fill,leg,_76,The girl was helped by the boy.,9,fill_76_leg_sent_9.png,NULL
1744586734,20fc610a4c308799f2f7cfd24025ba8e,PennController,77,0,fill,NULL,TextInput,q1,Final,The girl was helped by the boy.,1744584098382,595bee9282be5500017ad683,156,76,2,fill,leg,_76,The girl was helped by the boy.,9,fill_76_leg_sent_9.png,NULL
1744586734,20fc610a4c308799f2f7cfd24025ba8e,PennController,77,0,fill,NULL,PennController,78,_Trial_,End,1744584098382,595bee9282be5500017ad683,156,76,2,fill,leg,_76,The girl was helped by the boy.,9,fill_76_leg_sent_9.png,NULL
1744586734,20fc610a4c308799f2f7cfd24025ba8e,PennController,35,0,fill,NULL,PennController,36,_Trial_,Start,1744584098383,595bee9282be5500017ad683,114,34,2,fill,leg,_34,Bystanders were rescued by the firefighter.,105,fill_34_leg_sent_105.png,NULL
1744586734,20fc610a4c308799f2f7cfd24025ba8e,PennController,35,0,fill,NULL,PennController,36,_Header_,Start,1744584098383,595bee9282be5500017ad683,114,34,2,fill,leg,_34,Bystanders were rescued by the firefighter.,105,fill_34_leg_sent_105.png,NULL
1744586734,20fc610a4c308799f2f7cfd24025ba8e,PennController,35,0,fill,NULL,PennController,36,_Header_,End,1744584098383,595bee9282be5500017ad683,114,34,2,fill,leg,_34,Bystanders were rescued by the firefighter.,105,fill_34_leg_sent_105.png,NULL
1744586734,20fc610a4c308799f2f7cfd24025ba8e,PennController,35,0,fill,NULL,TextInput,q1,Final,Bystanders were rescued by the firefighter.,1744584116998,595bee9282be5500017ad683,114,34,2,fill,leg,_34,Bystanders were rescued by the firefighter.,105,fill_34_leg_sent_105.png,NULL
1744586734,20fc610a4c308799f2f7cfd24025ba8e,PennController,35,0,fill,NULL,PennController,36,_Trial_,End,1744584116998,595bee9282be5500017ad683,114,34,2,fill,leg,_34,Bystanders were rescued by the firefighter.,105,fill_34_leg_sent_105.png,NULL
1744586734,20fc610a4c308799f2f7cfd24025ba8e,PennController,49,0,fill,NULL,PennController,50,_Trial_,Start,1744584116999,595bee9282be5500017ad683,128,48,2,fill,leg,_48,The sculptor brought a seashell from the ocean depths.,96,fill_48_leg_sent_96.png,NULL
1744586734,20fc610a4c308799f2f7cfd24025ba8e,PennController,49,0,fill,NULL,PennController,50,_Header_,Start,1744584116999,595bee9282be5500017ad683,128,48,2,fill,leg,_48,The sculptor brought a seashell from the ocean depths.,96,fill_48_leg_sent_96.png,NULL
1744586734,20fc610a4c308799f2f7cfd24025ba8e,PennController,49,0,fill,NULL,PennController,50,_Header_,End,1744584116999,595bee9282be5500017ad683,128,48,2,fill,leg,_48,The sculptor brought a seashell from the ocean depths.,96,fill_48_leg_sent_96.png,NULL
1744586734,20fc610a4c308799f2f7cfd24025ba8e,PennController,49,0,fill,NULL,TextInput,q1,Final,The sculptor brought a seashell from the ocean depths.,1744584132481,595bee9282be5500017ad683,128,48,2,fill,leg,_48,The sculptor brought a seashell from the ocean depths.,96,fill_48_leg_sent_96.png,NULL
1744586734,20fc610a4c308799f2f7cfd24025ba8e,PennController,49,0,fill,NULL,PennController,50,_Trial_,End,1744584132481,595bee9282be5500017ad683,128,48,2,fill,leg,_48,The sculptor brought a seashell from the ocean depths.,96,fill_48_leg_sent_96.png,NULL
1744586734,20fc610a4c308799f2f7cfd24025ba8e,PennController,12,0,crit,NULL,PennController,13,_Trial_,Start,1744584132482,595bee9282be5500017ad683,91,11,2,crit,ill,_11,The torch blamed radiantly in the dark night,35,crit_11_ill_sent_35.png,NULL
1744586734,20fc610a4c308799f2f7cfd24025ba8e,PennController,12,0,crit,NULL,PennController,13,_Header_,Start,1744584132482,595bee9282be5500017ad683,91,11,2,crit,ill,_11,The torch blamed radiantly in the dark night,35,crit_11_ill_sent_35.png,NULL
1744586734,20fc610a4c308799f2f7cfd24025ba8e,PennController,12,0,crit,NULL,PennController,13,_Header_,End,1744584132482,595bee9282be5500017ad683,91,11,2,crit,ill,_11,The torch blamed radiantly in the dark night,35,crit_11_ill_sent_35.png,NULL
1744586734,20fc610a4c308799f2f7cfd24025ba8e,PennController,12,0,crit,NULL,TextInput,q1,Final,The torched blamed radiantly in the dark night.,1744584178696,595bee9282be5500017ad683,91,11,2,crit,ill,_11,The torch blamed radiantly in the dark night,35,crit_11_ill_sent_35.png,NULL
1744586734,20fc610a4c308799f2f7cfd24025ba8e,PennController,12,0,crit,NULL,PennController,13,_Trial_,End,1744584178696,595bee9282be5500017ad683,91,11,2,crit,ill,_11,The torch blamed radiantly in the dark night,35,crit_11_ill_sent_35.png,NULL
1744586734,20fc610a4c308799f2f7cfd24025ba8e,PennController,76,0,fill,NULL,PennController,77,_Trial_,Start,1744584178697,595bee9282be5500017ad683,155,75,2,fill,leg,_75,The husband was loved by the wife.,109,fill_75_leg_sent_109.png,NULL
1744586734,20fc610a4c308799f2f7cfd24025ba8e,PennController,76,0,fill,NULL,PennController,77,_Header_,Start,1744584178697,595bee9282be5500017ad683,155,75,2,fill,leg,_75,The husband was loved by the wife.,109,fill_75_leg_sent_109.png,NULL
1744586734,20fc610a4c308799f2f7cfd24025ba8e,PennController,76,0,fill,NULL,PennController,77,_Header_,End,1744584178697,595bee9282be5500017ad683,155,75,2,fill,leg,_75,The husband was loved by the wife.,109,fill_75_leg_sent_109.png,NULL
1744586734,20fc610a4c308799f2f7cfd24025ba8e,PennController,76,0,fill,NULL,TextInput,q1,Final,The husband was loved by the wife.,1744584189981,595bee9282be5500017ad683,155,75,2,fill,leg,_75,The husband was loved by the wife.,109,fill_75_leg_sent_109.png,NULL
1744586734,20fc610a4c308799f2f7cfd24025ba8e,PennController,76,0,fill,NULL,PennController,77,_Trial_,End,1744584189981,595bee9282be5500017ad683,155,75,2,fill,leg,_75,The husband was loved by the wife.,109,fill_75_leg_sent_109.png,NULL
1744586734,20fc610a4c308799f2f7cfd24025ba8e,PennController,46,0,fill,NULL,PennController,47,_Trial_,Start,1744584189982,595bee9282be5500017ad683,125,45,2,fill,leg,_45,The playwright selected the understudy because of his resemblance to the lead actor.,85,fill_45_leg_sent_85.png,NULL
1744586734,20fc610a4c308799f2f7cfd24025ba8e,PennController,46,0,fill,NULL,PennController,47,_Header_,Start,1744584189982,595bee9282be5500017ad683,125,45,2,fill,leg,_45,The playwright selected the understudy because of his resemblance to the lead actor.,85,fill_45_leg_sent_85.png,NULL
1744586734,20fc610a4c308799f2f7cfd24025ba8e,PennController,46,0,fill,NULL,PennController,47,_Header_,End,1744584189982,595bee9282be5500017ad683,125,45,2,fill,leg,_45,The playwright selected the understudy because of his resemblance to the lead actor.,85,fill_45_leg_sent_85.png,NULL
1744586734,20fc610a4c308799f2f7cfd24025ba8e,PennController,46,0,fill,NULL,TextInput,q1,Final,The playwright selected the understudy because of his resemblance to the head actor.,1744584211912,595bee9282be5500017ad683,125,45,2,fill,leg,_45,The playwright selected the understudy because of his resemblance to the lead actor.,85,fill_45_leg_sent_85.png,NULL
1744586734,20fc610a4c308799f2f7cfd24025ba8e,PennController,46,0,fill,NULL,PennController,47,_Trial_,End,1744584211912,595bee9282be5500017ad683,125,45,2,fill,leg,_45,The playwright selected the understudy because of his resemblance to the lead actor.,85,fill_45_leg_sent_85.png,NULL
1744586734,20fc610a4c308799f2f7cfd24025ba8e,PennController,43,0,fill,NULL,PennController,44,_Trial_,Start,1744584211914,595bee9282be5500017ad683,122,42,2,fill,leg,_42,An analyst angered the economist after he interrupted a phone call.,52,fill_42_leg_sent_52.png,NULL
1744586734,20fc610a4c308799f2f7cfd24025ba8e,PennController,43,0,fill,NULL,PennController,44,_Header_,Start,1744584211914,595bee9282be5500017ad683,122,42,2,fill,leg,_42,An analyst angered the economist after he interrupted a phone call.,52,fill_42_leg_sent_52.png,NULL
1744586734,20fc610a4c308799f2f7cfd24025ba8e,PennController,43,0,fill,NULL,PennController,44,_Header_,End,1744584211914,595bee9282be5500017ad683,122,42,2,fill,leg,_42,An analyst angered the economist after he interrupted a phone call.,52,fill_42_leg_sent_52.png,NULL
1744586734,20fc610a4c308799f2f7cfd24025ba8e,PennController,43,0,fill,NULL,TextInput,q1,Final,An analyst angered the economist after he interrupted a phone call.,1744584227996,595bee9282be5500017ad683,122,42,2,fill,leg,_42,An analyst angered the economist after he interrupted a phone call.,52,fill_42_leg_sent_52.png,NULL
1744586734,20fc610a4c308799f2f7cfd24025ba8e,PennController,43,0,fill,NULL,PennController,44,_Trial_,End,1744584227996,595bee9282be5500017ad683,122,42,2,fill,leg,_42,An analyst angered the economist after he interrupted a phone call.,52,fill_42_leg_sent_52.png,NULL
1744586734,20fc610a4c308799f2f7cfd24025ba8e,PennController,7,0,crit,NULL,PennController,8,_Trial_,Start,1744584227998,595bee9282be5500017ad683,86,6,2,crit,ill,_06,The lumberjack saved the logs in half to prepare for the construction.,101,crit_06_ill_sent_101.png,NULL
1744586734,20fc610a4c308799f2f7cfd24025ba8e,PennController,7,0,crit,NULL,PennController,8,_Header_,Start,1744584227998,595bee9282be5500017ad683,86,6,2,crit,ill,_06,The lumberjack saved the logs in half to prepare for the construction.,101,crit_06_ill_sent_101.png,NULL
1744586734,20fc610a4c308799f2f7cfd24025ba8e,PennController,7,0,crit,NULL,PennController,8,_Header_,End,1744584227998,595bee9282be5500017ad683,86,6,2,crit,ill,_06,The lumberjack saved the logs in half to prepare for the construction.,101,crit_06_ill_sent_101.png,NULL
1744586734,20fc610a4c308799f2f7cfd24025ba8e,PennController,7,0,crit,NULL,TextInput,q1,Final,The lumberjack sawed the log in half to prepare for the construction.,1744584290927,595bee9282be5500017ad683,86,6,2,crit,ill,_06,The lumberjack saved the logs in half to prepare for the construction.,101,crit_06_ill_sent_101.png,NULL
1744586734,20fc610a4c308799f2f7cfd24025ba8e,PennController,7,0,crit,NULL,PennController,8,_Trial_,End,1744584290927,595bee9282be5500017ad683,86,6,2,crit,ill,_06,The lumberjack saved the logs in half to prepare for the construction.,101,crit_06_ill_sent_101.png,NULL
1744586734,20fc610a4c308799f2f7cfd24025ba8e,PennController,68,0,fill,NULL,PennController,69,_Trial_,Start,1744584290928,595bee9282be5500017ad683,147,67,2,fill,leg,_67,Before the butcher chopped the bacon%2C he cleaned a knife.,65,fill_67_leg_sent_65.png,NULL
1744586734,20fc610a4c308799f2f7cfd24025ba8e,PennController,68,0,fill,NULL,PennController,69,_Header_,Start,1744584290928,595bee9282be5500017ad683,147,67,2,fill,leg,_67,Before the butcher chopped the bacon%2C he cleaned a knife.,65,fill_67_leg_sent_65.png,NULL
1744586734,20fc610a4c308799f2f7cfd24025ba8e,PennController,68,0,fill,NULL,PennController,69,_Header_,End,1744584290928,595bee9282be5500017ad683,147,67,2,fill,leg,_67,Before the butcher chopped the bacon%2C he cleaned a knife.,65,fill_67_leg_sent_65.png,NULL
1744586734,20fc610a4c308799f2f7cfd24025ba8e,PennController,68,0,fill,NULL,TextInput,q1,Final,Before the butcher chopped he bacon%2C he cleaned a knife.,1744584308561,595bee9282be5500017ad683,147,67,2,fill,leg,_67,Before the butcher chopped the bacon%2C he cleaned a knife.,65,fill_67_leg_sent_65.png,NULL
1744586734,20fc610a4c308799f2f7cfd24025ba8e,PennController,68,0,fill,NULL,PennController,69,_Trial_,End,1744584308561,595bee9282be5500017ad683,147,67,2,fill,leg,_67,Before the butcher chopped the bacon%2C he cleaned a knife.,65,fill_67_leg_sent_65.png,NULL
1744586734,20fc610a4c308799f2f7cfd24025ba8e,PennController,66,0,fill,NULL,PennController,67,_Trial_,Start,1744584308563,595bee9282be5500017ad683,145,65,2,fill,leg,_65,After sorting some papers%2C the assistant copied a document for the editor.,32,fill_65_leg_sent_32.png,NULL
1744586734,20fc610a4c308799f2f7cfd24025ba8e,PennController,66,0,fill,NULL,PennController,67,_Header_,Start,1744584308563,595bee9282be5500017ad683,145,65,2,fill,leg,_65,After sorting some papers%2C the assistant copied a document for the editor.,32,fill_65_leg_sent_32.png,NULL
1744586734,20fc610a4c308799f2f7cfd24025ba8e,PennController,66,0,fill,NULL,PennController,67,_Header_,End,1744584308563,595bee9282be5500017ad683,145,65,2,fill,leg,_65,After sorting some papers%2C the assistant copied a document for the editor.,32,fill_65_leg_sent_32.png,NULL
1744586734,20fc610a4c308799f2f7cfd24025ba8e,PennController,66,0,fill,NULL,TextInput,q1,Final,After sorting some papers%2C the assistant copied a document for the editor.,1744584326109,595bee9282be5500017ad683,145,65,2,fill,leg,_65,After sorting some papers%2C the assistant copied a document for the editor.,32,fill_65_leg_sent_32.png,NULL
1744586734,20fc610a4c308799f2f7cfd24025ba8e,PennController,66,0,fill,NULL,PennController,67,_Trial_,End,1744584326109,595bee9282be5500017ad683,145,65,2,fill,leg,_65,After sorting some papers%2C the assistant copied a document for the editor.,32,fill_65_leg_sent_32.png,NULL
1744586734,20fc610a4c308799f2f7cfd24025ba8e,PennController,22,0,fill,NULL,PennController,23,_Trial_,Start,1744584326110,595bee9282be5500017ad683,101,21,2,fill,leg,_21,He conducted an inquiry into the status of the student.,34,fill_21_leg_sent_34.png,NULL
1744586734,20fc610a4c308799f2f7cfd24025ba8e,PennController,22,0,fill,NULL,PennController,23,_Header_,Start,1744584326110,595bee9282be5500017ad683,101,21,2,fill,leg,_21,He conducted an inquiry into the status of the student.,34,fill_21_leg_sent_34.png,NULL
1744586734,20fc610a4c308799f2f7cfd24025ba8e,PennController,22,0,fill,NULL,PennController,23,_Header_,End,1744584326110,595bee9282be5500017ad683,101,21,2,fill,leg,_21,He conducted an inquiry into the status of the student.,34,fill_21_leg_sent_34.png,NULL
1744586734,20fc610a4c308799f2f7cfd24025ba8e,PennController,22,0,fill,NULL,TextInput,q1,Final,He conducted an inquiry into the status of the student.,1744584340859,595bee9282be5500017ad683,101,21,2,fill,leg,_21,He conducted an inquiry into the status of the student.,34,fill_21_leg_sent_34.png,NULL
1744586734,20fc610a4c308799f2f7cfd24025ba8e,PennController,22,0,fill,NULL,PennController,23,_Trial_,End,1744584340859,595bee9282be5500017ad683,101,21,2,fill,leg,_21,He conducted an inquiry into the status of the student.,34,fill_21_leg_sent_34.png,NULL
1744586734,20fc610a4c308799f2f7cfd24025ba8e,PennController,11,0,crit,NULL,PennController,12,_Trial_,Start,1744584340861,595bee9282be5500017ad683,90,10,2,crit,ill,_10,They enjoyed a beautiful day beneath the run.,101,crit_10_ill_sent_101.png,NULL
1744586734,20fc610a4c308799f2f7cfd24025ba8e,PennController,11,0,crit,NULL,PennController,12,_Header_,Start,1744584340861,595bee9282be5500017ad683,90,10,2,crit,ill,_10,They enjoyed a beautiful day beneath the run.,101,crit_10_ill_sent_101.png,NULL
1744586734,20fc610a4c308799f2f7cfd24025ba8e,PennController,11,0,crit,NULL,PennController,12,_Header_,End,1744584340861,595bee9282be5500017ad683,90,10,2,crit,ill,_10,They enjoyed a beautiful day beneath the run.,101,crit_10_ill_sent_101.png,NULL
1744586734,20fc610a4c308799f2f7cfd24025ba8e,PennController,11,0,crit,NULL,TextInput,q1,Final,They enjoyed a beautiful day beneath the sun.,1744584359475,595bee9282be5500017ad683,90,10,2,crit,ill,_10,They enjoyed a beautiful day beneath the run.,101,crit_10_ill_sent_101.png,NULL
1744586734,20fc610a4c308799f2f7cfd24025ba8e,PennController,11,0,crit,NULL,PennController,12,_Trial_,End,1744584359475,595bee9282be5500017ad683,90,10,2,crit,ill,_10,They enjoyed a beautiful day beneath the run.,101,crit_10_ill_sent_101.png,NULL
1744586734,20fc610a4c308799f2f7cfd24025ba8e,PennController,56,0,fill,NULL,PennController,57,_Trial_,Start,1744584359476,595bee9282be5500017ad683,135,55,2,fill,leg,_55,The performer lifted the acrobat onto her shoulders gracefully.,118,fill_55_leg_sent_118.png,NULL
1744586734,20fc610a4c308799f2f7cfd24025ba8e,PennController,56,0,fill,NULL,PennController,57,_Header_,Start,1744584359476,595bee9282be5500017ad683,135,55,2,fill,leg,_55,The performer lifted the acrobat onto her shoulders gracefully.,118,fill_55_leg_sent_118.png,NULL
1744586734,20fc610a4c308799f2f7cfd24025ba8e,PennController,56,0,fill,NULL,PennController,57,_Header_,End,1744584359476,595bee9282be5500017ad683,135,55,2,fill,leg,_55,The performer lifted the acrobat onto her shoulders gracefully.,118,fill_55_leg_sent_118.png,NULL
1744586734,20fc610a4c308799f2f7cfd24025ba8e,PennController,56,0,fill,NULL,TextInput,q1,Final,The preformer lifted the acrobat onto her shoulders gracefully.,1744584374375,595bee9282be5500017ad683,135,55,2,fill,leg,_55,The performer lifted the acrobat onto her shoulders gracefully.,118,fill_55_leg_sent_118.png,NULL
1744586734,20fc610a4c308799f2f7cfd24025ba8e,PennController,56,0,fill,NULL,PennController,57,_Trial_,End,1744584374375,595bee9282be5500017ad683,135,55,2,fill,leg,_55,The performer lifted the acrobat onto her shoulders gracefully.,118,fill_55_leg_sent_118.png,NULL
1744586734,20fc610a4c308799f2f7cfd24025ba8e,PennController,63,0,fill,NULL,PennController,64,_Trial_,Start,1744584374376,595bee9282be5500017ad683,142,62,2,fill,leg,_62,The cheerleader was treated by a doctor who had been at the game.,81,fill_62_leg_sent_81.png,NULL
1744586734,20fc610a4c308799f2f7cfd24025ba8e,PennController,63,0,fill,NULL,PennController,64,_Header_,Start,1744584374376,595bee9282be5500017ad683,142,62,2,fill,leg,_62,The cheerleader was treated by a doctor who had been at the game.,81,fill_62_leg_sent_81.png,NULL
1744586734,20fc610a4c308799f2f7cfd24025ba8e,PennController,63,0,fill,NULL,PennController,64,_Header_,End,1744584374376,595bee9282be5500017ad683,142,62,2,fill,leg,_62,The cheerleader was treated by a doctor who had been at the game.,81,fill_62_leg_sent_81.png,NULL
1744586734,20fc610a4c308799f2f7cfd24025ba8e,PennController,63,0,fill,NULL,TextInput,q1,Final,The cheerleader was treated by a doctor who had been at the game.,1744584390058,595bee9282be5500017ad683,142,62,2,fill,leg,_62,The cheerleader was treated by a doctor who had been at the game.,81,fill_62_leg_sent_81.png,NULL
1744586734,20fc610a4c308799f2f7cfd24025ba8e,PennController,63,0,fill,NULL,PennController,64,_Trial_,End,1744584390058,595bee9282be5500017ad683,142,62,2,fill,leg,_62,The cheerleader was treated by a doctor who had been at the game.,81,fill_62_leg_sent_81.png,NULL
1744586734,20fc610a4c308799f2f7cfd24025ba8e,PennController,50,0,fill,NULL,PennController,51,_Trial_,Start,1744584390059,595bee9282be5500017ad683,129,49,2,fill,leg,_49,She shuffled the deck before distributing the cards.,30,fill_49_leg_sent_30.png,NULL
1744586734,20fc610a4c308799f2f7cfd24025ba8e,PennController,50,0,fill,NULL,PennController,51,_Header_,Start,1744584390059,595bee9282be5500017ad683,129,49,2,fill,leg,_49,She shuffled the deck before distributing the cards.,30,fill_49_leg_sent_30.png,NULL
1744586734,20fc610a4c308799f2f7cfd24025ba8e,PennController,50,0,fill,NULL,PennController,51,_Header_,End,1744584390059,595bee9282be5500017ad683,129,49,2,fill,leg,_49,She shuffled the deck before distributing the cards.,30,fill_49_leg_sent_30.png,NULL
1744586734,20fc610a4c308799f2f7cfd24025ba8e,PennController,50,0,fill,NULL,TextInput,q1,Final,She shuffled the deck before distributing the cards.,1744584890746,595bee9282be5500017ad683,129,49,2,fill,leg,_49,She shuffled the deck before distributing the cards.,30,fill_49_leg_sent_30.png,NULL
1744586734,20fc610a4c308799f2f7cfd24025ba8e,PennController,50,0,fill,NULL,PennController,51,_Trial_,End,1744584890746,595bee9282be5500017ad683,129,49,2,fill,leg,_49,She shuffled the deck before distributing the cards.,30,fill_49_leg_sent_30.png,NULL
1744586734,20fc610a4c308799f2f7cfd24025ba8e,PennController,20,0,crit,NULL,PennController,21,_Trial_,Start,1744584890748,595bee9282be5500017ad683,99,19,2,crit,ill,_19,The cat sat by the entrance%2C dining for its owner to return.,124,crit_19_ill_sent_124.png,NULL
1744586734,20fc610a4c308799f2f7cfd24025ba8e,PennController,20,0,crit,NULL,PennController,21,_Header_,Start,1744584890748,595bee9282be5500017ad683,99,19,2,crit,ill,_19,The cat sat by the entrance%2C dining for its owner to return.,124,crit_19_ill_sent_124.png,NULL
1744586734,20fc610a4c308799f2f7cfd24025ba8e,PennController,20,0,crit,NULL,PennController,21,_Header_,End,1744584890748,595bee9282be5500017ad683,99,19,2,crit,ill,_19,The cat sat by the entrance%2C dining for its owner to return.,124,crit_19_ill_sent_124.png,NULL
1744586734,20fc610a4c308799f2f7cfd24025ba8e,PennController,20,0,crit,NULL,TextInput,q1,Final,He took aim%2C the threw the part straight at the bullseye.,1744584914727,595bee9282be5500017ad683,99,19,2,crit,ill,_19,The cat sat by the entrance%2C dining for its owner to return.,124,crit_19_ill_sent_124.png,NULL
1744586734,20fc610a4c308799f2f7cfd24025ba8e,PennController,20,0,crit,NULL,PennController,21,_Trial_,End,1744584914728,595bee9282be5500017ad683,99,19,2,crit,ill,_19,The cat sat by the entrance%2C dining for its owner to return.,124,crit_19_ill_sent_124.png,NULL
1744586734,20fc610a4c308799f2f7cfd24025ba8e,PennController,31,0,fill,NULL,PennController,32,_Trial_,Start,1744584914729,595bee9282be5500017ad683,110,30,2,fill,leg,_30,The pirate snatched the treasure from an officer.,123,fill_30_leg_sent_123.png,NULL
1744586734,20fc610a4c308799f2f7cfd24025ba8e,PennController,31,0,fill,NULL,PennController,32,_Header_,Start,1744584914729,595bee9282be5500017ad683,110,30,2,fill,leg,_30,The pirate snatched the treasure from an officer.,123,fill_30_leg_sent_123.png,NULL
1744586734,20fc610a4c308799f2f7cfd24025ba8e,PennController,31,0,fill,NULL,PennController,32,_Header_,End,1744584914729,595bee9282be5500017ad683,110,30,2,fill,leg,_30,The pirate snatched the treasure from an officer.,123,fill_30_leg_sent_123.png,NULL
1744586734,20fc610a4c308799f2f7cfd24025ba8e,PennController,31,0,fill,NULL,TextInput,q1,Final,The pirate snatched the treasure from an officer.,1744584928062,595bee9282be5500017ad683,110,30,2,fill,leg,_30,The pirate snatched the treasure from an officer.,123,fill_30_leg_sent_123.png,NULL
1744586734,20fc610a4c308799f2f7cfd24025ba8e,PennController,31,0,fill,NULL,PennController,32,_Trial_,End,1744584928062,595bee9282be5500017ad683,110,30,2,fill,leg,_30,The pirate snatched the treasure from an officer.,123,fill_30_leg_sent_123.png,NULL
1744586734,20fc610a4c308799f2f7cfd24025ba8e,PennController,33,0,fill,NULL,PennController,34,_Trial_,Start,1744584928063,595bee9282be5500017ad683,112,32,2,fill,leg,_32,The spokesman grabbed a muffin for the emissary.,116,fill_32_leg_sent_116.png,NULL
1744586734,20fc610a4c308799f2f7cfd24025ba8e,PennController,33,0,fill,NULL,PennController,34,_Header_,Start,1744584928063,595bee9282be5500017ad683,112,32,2,fill,leg,_32,The spokesman grabbed a muffin for the emissary.,116,fill_32_leg_sent_116.png,NULL
1744586734,20fc610a4c308799f2f7cfd24025ba8e,PennController,33,0,fill,NULL,PennController,34,_Header_,End,1744584928063,595bee9282be5500017ad683,112,32,2,fill,leg,_32,The spokesman grabbed a muffin for the emissary.,116,fill_32_leg_sent_116.png,NULL
1744586734,20fc610a4c308799f2f7cfd24025ba8e,PennController,33,0,fill,NULL,TextInput,q1,Final,The spokesman grabbed a muffin for the emmissary.,1744584944276,595bee9282be5500017ad683,112,32,2,fill,leg,_32,The spokesman grabbed a muffin for the emissary.,116,fill_32_leg_sent_116.png,NULL
1744586734,20fc610a4c308799f2f7cfd24025ba8e,PennController,33,0,fill,NULL,PennController,34,_Trial_,End,1744584944277,595bee9282be5500017ad683,112,32,2,fill,leg,_32,The spokesman grabbed a muffin for the emissary.,116,fill_32_leg_sent_116.png,NULL
1744586734,20fc610a4c308799f2f7cfd24025ba8e,PennController,34,0,fill,NULL,PennController,35,_Trial_,Start,1744584944278,595bee9282be5500017ad683,113,33,2,fill,leg,_33,The supplier described a scenario for the students.,105,fill_33_leg_sent_105.png,NULL
1744586734,20fc610a4c308799f2f7cfd24025ba8e,PennController,34,0,fill,NULL,PennController,35,_Header_,Start,1744584944278,595bee9282be5500017ad683,113,33,2,fill,leg,_33,The supplier described a scenario for the students.,105,fill_33_leg_sent_105.png,NULL
1744586734,20fc610a4c308799f2f7cfd24025ba8e,PennController,34,0,fill,NULL,PennController,35,_Header_,End,1744584944278,595bee9282be5500017ad683,113,33,2,fill,leg,_33,The supplier described a scenario for the students.,105,fill_33_leg_sent_105.png,NULL
1744586734,20fc610a4c308799f2f7cfd24025ba8e,PennController,34,0,fill,NULL,TextInput,q1,Final,The supplier descfribe a scenario for the students.,1744585099539,595bee9282be5500017ad683,113,33,2,fill,leg,_33,The supplier described a scenario for the students.,105,fill_33_leg_sent_105.png,NULL
1744586734,20fc610a4c308799f2f7cfd24025ba8e,PennController,34,0,fill,NULL,PennController,35,_Trial_,End,1744585099540,595bee9282be5500017ad683,113,33,2,fill,leg,_33,The supplier described a scenario for the students.,105,fill_33_leg_sent_105.png,NULL
1744586734,20fc610a4c308799f2f7cfd24025ba8e,PennController,5,0,crit,NULL,PennController,6,_Trial_,Start,1744585099541,595bee9282be5500017ad683,84,4,2,crit,ill,_04,A truck ran on top of a ball%2C that shrank to a flat round desk.,95,crit_04_ill_sent_95.png,NULL
1744586734,20fc610a4c308799f2f7cfd24025ba8e,PennController,5,0,crit,NULL,PennController,6,_Header_,Start,1744585099541,595bee9282be5500017ad683,84,4,2,crit,ill,_04,A truck ran on top of a ball%2C that shrank to a flat round desk.,95,crit_04_ill_sent_95.png,NULL
1744586734,20fc610a4c308799f2f7cfd24025ba8e,PennController,5,0,crit,NULL,PennController,6,_Header_,End,1744585099541,595bee9282be5500017ad683,84,4,2,crit,ill,_04,A truck ran on top of a ball%2C that shrank to a flat round desk.,95,crit_04_ill_sent_95.png,NULL
1744586734,20fc610a4c308799f2f7cfd24025ba8e,PennController,5,0,crit,NULL,TextInput,q1,Final,A track ran on top of a bell%2C that shrank to a flat round disk,1744585297664,595bee9282be5500017ad683,84,4,2,crit,ill,_04,A truck ran on top of a ball%2C that shrank to a flat round desk.,95,crit_04_ill_sent_95.png,NULL
1744586734,20fc610a4c308799f2f7cfd24025ba8e,PennController,5,0,crit,NULL,PennController,6,_Trial_,End,1744585297664,595bee9282be5500017ad683,84,4,2,crit,ill,_04,A truck ran on top of a ball%2C that shrank to a flat round desk.,95,crit_04_ill_sent_95.png,NULL
1744586734,20fc610a4c308799f2f7cfd24025ba8e,PennController,81,0,fill,NULL,PennController,82,_Trial_,Start,1744585297665,595bee9282be5500017ad683,160,80,2,fill,leg,_80,The lawyer was insulted by the judge.,99,fill_80_leg_sent_99.png,NULL
1744586734,20fc610a4c308799f2f7cfd24025ba8e,PennController,81,0,fill,NULL,PennController,82,_Header_,Start,1744585297665,595bee9282be5500017ad683,160,80,2,fill,leg,_80,The lawyer was insulted by the judge.,99,fill_80_leg_sent_99.png,NULL
1744586734,20fc610a4c308799f2f7cfd24025ba8e,PennController,81,0,fill,NULL,PennController,82,_Header_,End,1744585297665,595bee9282be5500017ad683,160,80,2,fill,leg,_80,The lawyer was insulted by the judge.,99,fill_80_leg_sent_99.png,NULL
1744586734,20fc610a4c308799f2f7cfd24025ba8e,PennController,81,0,fill,NULL,TextInput,q1,Final,The lawyer was insulted by the judge.,1744585310015,595bee9282be5500017ad683,160,80,2,fill,leg,_80,The lawyer was insulted by the judge.,99,fill_80_leg_sent_99.png,NULL
1744586734,20fc610a4c308799f2f7cfd24025ba8e,PennController,81,0,fill,NULL,PennController,82,_Trial_,End,1744585310016,595bee9282be5500017ad683,160,80,2,fill,leg,_80,The lawyer was insulted by the judge.,99,fill_80_leg_sent_99.png,NULL
1744586734,20fc610a4c308799f2f7cfd24025ba8e,PennController,39,0,fill,NULL,PennController,40,_Trial_,Start,1744585310017,595bee9282be5500017ad683,118,38,2,fill,leg,_38,The principal commended a parent for her ability to motivate her child.,40,fill_38_leg_sent_40.png,NULL
1744586734,20fc610a4c308799f2f7cfd24025ba8e,PennController,39,0,fill,NULL,PennController,40,_Header_,Start,1744585310017,595bee9282be5500017ad683,118,38,2,fill,leg,_38,The principal commended a parent for her ability to motivate her child.,40,fill_38_leg_sent_40.png,NULL
1744586734,20fc610a4c308799f2f7cfd24025ba8e,PennController,39,0,fill,NULL,PennController,40,_Header_,End,1744585310017,595bee9282be5500017ad683,118,38,2,fill,leg,_38,The principal commended a parent for her ability to motivate her child.,40,fill_38_leg_sent_40.png,NULL
1744586734,20fc610a4c308799f2f7cfd24025ba8e,PennController,39,0,fill,NULL,TextInput,q1,Final,The principal commended a parent for her ability to motivate her child.,1744585329414,595bee9282be5500017ad683,118,38,2,fill,leg,_38,The principal commended a parent for her ability to motivate her child.,40,fill_38_leg_sent_40.png,NULL
1744586734,20fc610a4c308799f2f7cfd24025ba8e,PennController,39,0,fill,NULL,PennController,40,_Trial_,End,1744585329414,595bee9282be5500017ad683,118,38,2,fill,leg,_38,The principal commended a parent for her ability to motivate her child.,40,fill_38_leg_sent_40.png,NULL
1744586734,20fc610a4c308799f2f7cfd24025ba8e,PennController,14,0,crit,NULL,PennController,15,_Trial_,Start,1744585329415,595bee9282be5500017ad683,93,13,2,crit,ill,_13,Sightseers boarded the liver early.,68,crit_13_ill_sent_68.png,NULL
1744586734,20fc610a4c308799f2f7cfd24025ba8e,PennController,14,0,crit,NULL,PennController,15,_Header_,Start,1744585329415,595bee9282be5500017ad683,93,13,2,crit,ill,_13,Sightseers boarded the liver early.,68,crit_13_ill_sent_68.png,NULL
1744586734,20fc610a4c308799f2f7cfd24025ba8e,PennController,14,0,crit,NULL,PennController,15,_Header_,End,1744585329415,595bee9282be5500017ad683,93,13,2,crit,ill,_13,Sightseers boarded the liver early.,68,crit_13_ill_sent_68.png,NULL
1744586734,20fc610a4c308799f2f7cfd24025ba8e,PennController,14,0,crit,NULL,TextInput,q1,Final,Sightseers boarded the livery early.,1744585355949,595bee9282be5500017ad683,93,13,2,crit,ill,_13,Sightseers boarded the liver early.,68,crit_13_ill_sent_68.png,NULL
1744586734,20fc610a4c308799f2f7cfd24025ba8e,PennController,14,0,crit,NULL,PennController,15,_Trial_,End,1744585355949,595bee9282be5500017ad683,93,13,2,crit,ill,_13,Sightseers boarded the liver early.,68,crit_13_ill_sent_68.png,NULL
1744586734,20fc610a4c308799f2f7cfd24025ba8e,PennController,57,0,fill,NULL,PennController,58,_Trial_,Start,1744585355950,595bee9282be5500017ad683,136,56,2,fill,leg,_56,The archivist found a document dating back to the Nixon administration.,107,fill_56_leg_sent_107.png,NULL
1744586734,20fc610a4c308799f2f7cfd24025ba8e,PennController,57,0,fill,NULL,PennController,58,_Header_,Start,1744585355950,595bee9282be5500017ad683,136,56,2,fill,leg,_56,The archivist found a document dating back to the Nixon administration.,107,fill_56_leg_sent_107.png,NULL
1744586734,20fc610a4c308799f2f7cfd24025ba8e,PennController,57,0,fill,NULL,PennController,58,_Header_,End,1744585355950,595bee9282be5500017ad683,136,56,2,fill,leg,_56,The archivist found a document dating back to the Nixon administration.,107,fill_56_leg_sent_107.png,NULL
1744586734,20fc610a4c308799f2f7cfd24025ba8e,PennController,57,0,fill,NULL,TextInput,q1,Final,The archivist found a document dating back to the Nixon administration.,1744585376130,595bee9282be5500017ad683,136,56,2,fill,leg,_56,The archivist found a document dating back to the Nixon administration.,107,fill_56_leg_sent_107.png,NULL
1744586734,20fc610a4c308799f2f7cfd24025ba8e,PennController,57,0,fill,NULL,PennController,58,_Trial_,End,1744585376131,595bee9282be5500017ad683,136,56,2,fill,leg,_56,The archivist found a document dating back to the Nixon administration.,107,fill_56_leg_sent_107.png,NULL
1744586734,20fc610a4c308799f2f7cfd24025ba8e,PennController,73,0,fill,NULL,PennController,74,_Trial_,Start,1744585376131,595bee9282be5500017ad683,152,72,2,fill,leg,_72,The nephew asked the uncle a question.,55,fill_72_leg_sent_55.png,NULL
1744586734,20fc610a4c308799f2f7cfd24025ba8e,PennController,73,0,fill,NULL,PennController,74,_Header_,Start,1744585376131,595bee9282be5500017ad683,152,72,2,fill,leg,_72,The nephew asked the uncle a question.,55,fill_72_leg_sent_55.png,NULL
1744586734,20fc610a4c308799f2f7cfd24025ba8e,PennController,73,0,fill,NULL,PennController,74,_Header_,End,1744585376131,595bee9282be5500017ad683,152,72,2,fill,leg,_72,The nephew asked the uncle a question.,55,fill_72_leg_sent_55.png,NULL
1744586734,20fc610a4c308799f2f7cfd24025ba8e,PennController,73,0,fill,NULL,TextInput,q1,Final,The nephew asked the uncle a question.,1744585388982,595bee9282be5500017ad683,152,72,2,fill,leg,_72,The nephew asked the uncle a question.,55,fill_72_leg_sent_55.png,NULL
1744586734,20fc610a4c308799f2f7cfd24025ba8e,PennController,73,0,fill,NULL,PennController,74,_Trial_,End,1744585388982,595bee9282be5500017ad683,152,72,2,fill,leg,_72,The nephew asked the uncle a question.,55,fill_72_leg_sent_55.png,NULL
1744586734,20fc610a4c308799f2f7cfd24025ba8e,PennController,71,0,fill,NULL,PennController,72,_Trial_,Start,1744585388983,595bee9282be5500017ad683,150,70,2,fill,leg,_70,Jeremy piloted the airplane that destroyed the missile.,88,fill_70_leg_sent_88.png,NULL
1744586734,20fc610a4c308799f2f7cfd24025ba8e,PennController,71,0,fill,NULL,PennController,72,_Header_,Start,1744585388983,595bee9282be5500017ad683,150,70,2,fill,leg,_70,Jeremy piloted the airplane that destroyed the missile.,88,fill_70_leg_sent_88.png,NULL
1744586734,20fc610a4c308799f2f7cfd24025ba8e,PennController,71,0,fill,NULL,PennController,72,_Header_,End,1744585388983,595bee9282be5500017ad683,150,70,2,fill,leg,_70,Jeremy piloted the airplane that destroyed the missile.,88,fill_70_leg_sent_88.png,NULL
1744586734,20fc610a4c308799f2f7cfd24025ba8e,PennController,71,0,fill,NULL,TextInput,q1,Final,Jeremy piloted the airplane that destroyed the missile.,1744585409964,595bee9282be5500017ad683,150,70,2,fill,leg,_70,Jeremy piloted the airplane that destroyed the missile.,88,fill_70_leg_sent_88.png,NULL
1744586734,20fc610a4c308799f2f7cfd24025ba8e,PennController,71,0,fill,NULL,PennController,72,_Trial_,End,1744585409964,595bee9282be5500017ad683,150,70,2,fill,leg,_70,Jeremy piloted the airplane that destroyed the missile.,88,fill_70_leg_sent_88.png,NULL
1744586734,20fc610a4c308799f2f7cfd24025ba8e,PennController,9,0,crit,NULL,PennController,10,_Trial_,Start,1744585409965,595bee9282be5500017ad683,88,8,2,crit,ill,_08,Emma hit some fireworks on New Years Eve,125,crit_08_ill_sent_125.png,NULL
1744586734,20fc610a4c308799f2f7cfd24025ba8e,PennController,9,0,crit,NULL,PennController,10,_Header_,Start,1744585409965,595bee9282be5500017ad683,88,8,2,crit,ill,_08,Emma hit some fireworks on New Years Eve,125,crit_08_ill_sent_125.png,NULL
1744586734,20fc610a4c308799f2f7cfd24025ba8e,PennController,9,0,crit,NULL,PennController,10,_Header_,End,1744585409965,595bee9282be5500017ad683,88,8,2,crit,ill,_08,Emma hit some fireworks on New Years Eve,125,crit_08_ill_sent_125.png,NULL
1744586734,20fc610a4c308799f2f7cfd24025ba8e,PennController,9,0,crit,NULL,TextInput,q1,Final,Emma lit some fireworks on New Years Eve.,1744585429431,595bee9282be5500017ad683,88,8,2,crit,ill,_08,Emma hit some fireworks on New Years Eve,125,crit_08_ill_sent_125.png,NULL
1744586734,20fc610a4c308799f2f7cfd24025ba8e,PennController,9,0,crit,NULL,PennController,10,_Trial_,End,1744585429431,595bee9282be5500017ad683,88,8,2,crit,ill,_08,Emma hit some fireworks on New Years Eve,125,crit_08_ill_sent_125.png,NULL
1744586734,20fc610a4c308799f2f7cfd24025ba8e,PennController,59,0,fill,NULL,PennController,60,_Trial_,Start,1744585429432,595bee9282be5500017ad683,138,58,2,fill,leg,_58,The surgeon called for a nurse to assist him with the operation.,118,fill_58_leg_sent_118.png,NULL
1744586734,20fc610a4c308799f2f7cfd24025ba8e,PennController,59,0,fill,NULL,PennController,60,_Header_,Start,1744585429432,595bee9282be5500017ad683,138,58,2,fill,leg,_58,The surgeon called for a nurse to assist him with the operation.,118,fill_58_leg_sent_118.png,NULL
1744586734,20fc610a4c308799f2f7cfd24025ba8e,PennController,59,0,fill,NULL,PennController,60,_Header_,End,1744585429432,595bee9282be5500017ad683,138,58,2,fill,leg,_58,The surgeon called for a nurse to assist him with the operation.,118,fill_58_leg_sent_118.png,NULL
1744586734,20fc610a4c308799f2f7cfd24025ba8e,PennController,59,0,fill,NULL,TextInput,q1,Final,The surgeon called for a nurse to assist him with the operation.,1744585443714,595bee9282be5500017ad683,138,58,2,fill,leg,_58,The surgeon called for a nurse to assist him with the operation.,118,fill_58_leg_sent_118.png,NULL
1744586734,20fc610a4c308799f2f7cfd24025ba8e,PennController,59,0,fill,NULL,PennController,60,_Trial_,End,1744585443714,595bee9282be5500017ad683,138,58,2,fill,leg,_58,The surgeon called for a nurse to assist him with the operation.,118,fill_58_leg_sent_118.png,NULL
1744586734,20fc610a4c308799f2f7cfd24025ba8e,PennController,72,0,fill,NULL,PennController,73,_Trial_,Start,1744585443715,595bee9282be5500017ad683,151,71,2,fill,leg,_71,The father chased the daughter.,99,fill_71_leg_sent_99.png,NULL
1744586734,20fc610a4c308799f2f7cfd24025ba8e,PennController,72,0,fill,NULL,PennController,73,_Header_,Start,1744585443715,595bee9282be5500017ad683,151,71,2,fill,leg,_71,The father chased the daughter.,99,fill_71_leg_sent_99.png,NULL
1744586734,20fc610a4c308799f2f7cfd24025ba8e,PennController,72,0,fill,NULL,PennController,73,_Header_,End,1744585443715,595bee9282be5500017ad683,151,71,2,fill,leg,_71,The father chased the daughter.,99,fill_71_leg_sent_99.png,NULL
1744586734,20fc610a4c308799f2f7cfd24025ba8e,PennController,72,0,fill,NULL,TextInput,q1,Final,The father chased the daughter.,1744585454415,595bee9282be5500017ad683,151,71,2,fill,leg,_71,The father chased the daughter.,99,fill_71_leg_sent_99.png,NULL
1744586734,20fc610a4c308799f2f7cfd24025ba8e,PennController,72,0,fill,NULL,PennController,73,_Trial_,End,1744585454415,595bee9282be5500017ad683,151,71,2,fill,leg,_71,The father chased the daughter.,99,fill_71_leg_sent_99.png,NULL
1744586734,20fc610a4c308799f2f7cfd24025ba8e,PennController,61,0,fill,NULL,PennController,62,_Trial_,Start,1744585454416,595bee9282be5500017ad683,140,60,2,fill,leg,_60,Vikings raided a village in search of the warrior.,107,fill_60_leg_sent_107.png,NULL
1744586734,20fc610a4c308799f2f7cfd24025ba8e,PennController,61,0,fill,NULL,PennController,62,_Header_,Start,1744585454416,595bee9282be5500017ad683,140,60,2,fill,leg,_60,Vikings raided a village in search of the warrior.,107,fill_60_leg_sent_107.png,NULL
1744586734,20fc610a4c308799f2f7cfd24025ba8e,PennController,61,0,fill,NULL,PennController,62,_Header_,End,1744585454416,595bee9282be5500017ad683,140,60,2,fill,leg,_60,Vikings raided a village in search of the warrior.,107,fill_60_leg_sent_107.png,NULL
1744586734,20fc610a4c308799f2f7cfd24025ba8e,PennController,61,0,fill,NULL,TextInput,q1,Final,Vikings raided a village in search of the warrior.,1744585466914,595bee9282be5500017ad683,140,60,2,fill,leg,_60,Vikings raided a village in search of the warrior.,107,fill_60_leg_sent_107.png,NULL
1744586734,20fc610a4c308799f2f7cfd24025ba8e,PennController,61,0,fill,NULL,PennController,62,_Trial_,End,1744585466914,595bee9282be5500017ad683,140,60,2,fill,leg,_60,Vikings raided a village in search of the warrior.,107,fill_60_leg_sent_107.png,NULL
1744586734,20fc610a4c308799f2f7cfd24025ba8e,PennController,6,0,crit,NULL,PennController,7,_Trial_,Start,1744585466915,595bee9282be5500017ad683,85,5,2,crit,ill,_05,If Kyle uses the wet map then the tiles will be shiny.,24,crit_05_ill_sent_24.png,NULL
1744586734,20fc610a4c308799f2f7cfd24025ba8e,PennController,6,0,crit,NULL,PennController,7,_Header_,Start,1744585466915,595bee9282be5500017ad683,85,5,2,crit,ill,_05,If Kyle uses the wet map then the tiles will be shiny.,24,crit_05_ill_sent_24.png,NULL
1744586734,20fc610a4c308799f2f7cfd24025ba8e,PennController,6,0,crit,NULL,PennController,7,_Header_,End,1744585466915,595bee9282be5500017ad683,85,5,2,crit,ill,_05,If Kyle uses the wet map then the tiles will be shiny.,24,crit_05_ill_sent_24.png,NULL
1744586734,20fc610a4c308799f2f7cfd24025ba8e,PennController,6,0,crit,NULL,TextInput,q1,Final,If Kyle used the met mop then the tiles will be shiny.,1744585864449,595bee9282be5500017ad683,85,5,2,crit,ill,_05,If Kyle uses the wet map then the tiles will be shiny.,24,crit_05_ill_sent_24.png,NULL
1744586734,20fc610a4c308799f2f7cfd24025ba8e,PennController,6,0,crit,NULL,PennController,7,_Trial_,End,1744585864449,595bee9282be5500017ad683,85,5,2,crit,ill,_05,If Kyle uses the wet map then the tiles will be shiny.,24,crit_05_ill_sent_24.png,NULL
1744586734,20fc610a4c308799f2f7cfd24025ba8e,PennController,54,0,fill,NULL,PennController,55,_Trial_,Start,1744585864451,595bee9282be5500017ad683,133,53,2,fill,leg,_53,The paramedic helped an invalid into the brick building,66,fill_53_leg_sent_66.png,NULL
1744586734,20fc610a4c308799f2f7cfd24025ba8e,PennController,54,0,fill,NULL,PennController,55,_Header_,Start,1744585864451,595bee9282be5500017ad683,133,53,2,fill,leg,_53,The paramedic helped an invalid into the brick building,66,fill_53_leg_sent_66.png,NULL
1744586734,20fc610a4c308799f2f7cfd24025ba8e,PennController,54,0,fill,NULL,PennController,55,_Header_,End,1744585864451,595bee9282be5500017ad683,133,53,2,fill,leg,_53,The paramedic helped an invalid into the brick building,66,fill_53_leg_sent_66.png,NULL
1744586734,20fc610a4c308799f2f7cfd24025ba8e,PennController,54,0,fill,NULL,TextInput,q1,Final,The paramedic helped an invalid in the brick building,1744585879215,595bee9282be5500017ad683,133,53,2,fill,leg,_53,The paramedic helped an invalid into the brick building,66,fill_53_leg_sent_66.png,NULL
1744586734,20fc610a4c308799f2f7cfd24025ba8e,PennController,54,0,fill,NULL,PennController,55,_Trial_,End,1744585879215,595bee9282be5500017ad683,133,53,2,fill,leg,_53,The paramedic helped an invalid into the brick building,66,fill_53_leg_sent_66.png,NULL
1744586734,20fc610a4c308799f2f7cfd24025ba8e,PennController,24,0,fill,NULL,PennController,25,_Trial_,Start,1744585879216,595bee9282be5500017ad683,103,23,2,fill,leg,_23,It was discovered that the terrorist assassinated the newsman.,89,fill_23_leg_sent_89.png,NULL
1744586734,20fc610a4c308799f2f7cfd24025ba8e,PennController,24,0,fill,NULL,PennController,25,_Header_,Start,1744585879216,595bee9282be5500017ad683,103,23,2,fill,leg,_23,It was discovered that the terrorist assassinated the newsman.,89,fill_23_leg_sent_89.png,NULL
1744586734,20fc610a4c308799f2f7cfd24025ba8e,PennController,24,0,fill,NULL,PennController,25,_Header_,End,1744585879216,595bee9282be5500017ad683,103,23,2,fill,leg,_23,It was discovered that the terrorist assassinated the newsman.,89,fill_23_leg_sent_89.png,NULL
1744586734,20fc610a4c308799f2f7cfd24025ba8e,PennController,24,0,fill,NULL,TextInput,q1,Final,It was discovered that the terrorist assassinated the newsman.,1744585895314,595bee9282be5500017ad683,103,23,2,fill,leg,_23,It was discovered that the terrorist assassinated the newsman.,89,fill_23_leg_sent_89.png,NULL
1744586734,20fc610a4c308799f2f7cfd24025ba8e,PennController,24,0,fill,NULL,PennController,25,_Trial_,End,1744585895314,595bee9282be5500017ad683,103,23,2,fill,leg,_23,It was discovered that the terrorist assassinated the newsman.,89,fill_23_leg_sent_89.png,NULL
1744586734,20fc610a4c308799f2f7cfd24025ba8e,PennController,37,0,fill,NULL,PennController,38,_Trial_,Start,1744585895314,595bee9282be5500017ad683,116,36,2,fill,leg,_36,Because the ambassador could not speak Lebanese%2C the translator found a taxi for him.,40,fill_36_leg_sent_40.png,NULL
1744586734,20fc610a4c308799f2f7cfd24025ba8e,PennController,37,0,fill,NULL,PennController,38,_Header_,Start,1744585895314,595bee9282be5500017ad683,116,36,2,fill,leg,_36,Because the ambassador could not speak Lebanese%2C the translator found a taxi for him.,40,fill_36_leg_sent_40.png,NULL
1744586734,20fc610a4c308799f2f7cfd24025ba8e,PennController,37,0,fill,NULL,PennController,38,_Header_,End,1744585895314,595bee9282be5500017ad683,116,36,2,fill,leg,_36,Because the ambassador could not speak Lebanese%2C the translator found a taxi for him.,40,fill_36_leg_sent_40.png,NULL
1744586734,20fc610a4c308799f2f7cfd24025ba8e,PennController,37,0,fill,NULL,TextInput,q1,Final,Because the ambassador could not speak Lebanese%2C the translator found a taxi for him.,1744585918065,595bee9282be5500017ad683,116,36,2,fill,leg,_36,Because the ambassador could not speak Lebanese%2C the translator found a taxi for him.,40,fill_36_leg_sent_40.png,NULL
1744586734,20fc610a4c308799f2f7cfd24025ba8e,PennController,37,0,fill,NULL,PennController,38,_Trial_,End,1744585918066,595bee9282be5500017ad683,116,36,2,fill,leg,_36,Because the ambassador could not speak Lebanese%2C the translator found a taxi for him.,40,fill_36_leg_sent_40.png,NULL
1744586734,20fc610a4c308799f2f7cfd24025ba8e,PennController,8,0,crit,NULL,PennController,9,_Trial_,Start,1744585918067,595bee9282be5500017ad683,87,7,2,crit,ill,_07,The teacher lost her gold ring at the crowded shopping ball.,75,crit_07_ill_sent_75.png,NULL
1744586734,20fc610a4c308799f2f7cfd24025ba8e,PennController,8,0,crit,NULL,PennController,9,_Header_,Start,1744585918067,595bee9282be5500017ad683,87,7,2,crit,ill,_07,The teacher lost her gold ring at the crowded shopping ball.,75,crit_07_ill_sent_75.png,NULL
1744586734,20fc610a4c308799f2f7cfd24025ba8e,PennController,8,0,crit,NULL,PennController,9,_Header_,End,1744585918067,595bee9282be5500017ad683,87,7,2,crit,ill,_07,The teacher lost her gold ring at the crowded shopping ball.,75,crit_07_ill_sent_75.png,NULL
1744586734,20fc610a4c308799f2f7cfd24025ba8e,PennController,8,0,crit,NULL,TextInput,q1,Final,The teacher lost her gold ring at the Crowaven Shopping Mall.,1744585981132,595bee9282be5500017ad683,87,7,2,crit,ill,_07,The teacher lost her gold ring at the crowded shopping ball.,75,crit_07_ill_sent_75.png,NULL
1744586734,20fc610a4c308799f2f7cfd24025ba8e,PennController,8,0,crit,NULL,PennController,9,_Trial_,End,1744585981132,595bee9282be5500017ad683,87,7,2,crit,ill,_07,The teacher lost her gold ring at the crowded shopping ball.,75,crit_07_ill_sent_75.png,NULL
1744586734,20fc610a4c308799f2f7cfd24025ba8e,PennController,55,0,fill,NULL,PennController,56,_Trial_,Start,1744585981133,595bee9282be5500017ad683,134,54,2,fill,leg,_54,He ordered a bartender to bring him a drink.,107,fill_54_leg_sent_107.png,NULL
1744586734,20fc610a4c308799f2f7cfd24025ba8e,PennController,55,0,fill,NULL,PennController,56,_Header_,Start,1744585981133,595bee9282be5500017ad683,134,54,2,fill,leg,_54,He ordered a bartender to bring him a drink.,107,fill_54_leg_sent_107.png,NULL
1744586734,20fc610a4c308799f2f7cfd24025ba8e,PennController,55,0,fill,NULL,PennController,56,_Header_,End,1744585981133,595bee9282be5500017ad683,134,54,2,fill,leg,_54,He ordered a bartender to bring him a drink.,107,fill_54_leg_sent_107.png,NULL
1744586734,20fc610a4c308799f2f7cfd24025ba8e,PennController,55,0,fill,NULL,TextInput,q1,Final,He ordered a bartender to bring him a drink.,1744585994049,595bee9282be5500017ad683,134,54,2,fill,leg,_54,He ordered a bartender to bring him a drink.,107,fill_54_leg_sent_107.png,NULL
1744586734,20fc610a4c308799f2f7cfd24025ba8e,PennController,55,0,fill,NULL,PennController,56,_Trial_,End,1744585994049,595bee9282be5500017ad683,134,54,2,fill,leg,_54,He ordered a bartender to bring him a drink.,107,fill_54_leg_sent_107.png,NULL
1744586734,20fc610a4c308799f2f7cfd24025ba8e,PennController,74,0,fill,NULL,PennController,75,_Trial_,Start,1744585994051,595bee9282be5500017ad683,153,73,2,fill,leg,_73,Carol ordered the astronomer a drink.,9,fill_73_leg_sent_9.png,NULL
1744586734,20fc610a4c308799f2f7cfd24025ba8e,PennController,74,0,fill,NULL,PennController,75,_Header_,Start,1744585994051,595bee9282be5500017ad683,153,73,2,fill,leg,_73,Carol ordered the astronomer a drink.,9,fill_73_leg_sent_9.png,NULL
1744586734,20fc610a4c308799f2f7cfd24025ba8e,PennController,74,0,fill,NULL,PennController,75,_Header_,End,1744585994051,595bee9282be5500017ad683,153,73,2,fill,leg,_73,Carol ordered the astronomer a drink.,9,fill_73_leg_sent_9.png,NULL
1744586734,20fc610a4c308799f2f7cfd24025ba8e,PennController,74,0,fill,NULL,TextInput,q1,Final,Carol ordered the astronomer a drink.,1744586007249,595bee9282be5500017ad683,153,73,2,fill,leg,_73,Carol ordered the astronomer a drink.,9,fill_73_leg_sent_9.png,NULL
1744586734,20fc610a4c308799f2f7cfd24025ba8e,PennController,74,0,fill,NULL,PennController,75,_Trial_,End,1744586007249,595bee9282be5500017ad683,153,73,2,fill,leg,_73,Carol ordered the astronomer a drink.,9,fill_73_leg_sent_9.png,NULL
1744586734,20fc610a4c308799f2f7cfd24025ba8e,PennController,67,0,fill,NULL,PennController,68,_Trial_,Start,1744586007250,595bee9282be5500017ad683,146,66,2,fill,leg,_66,During the final match of the season%2C the coach encouraged the team to score in the last quarter.,32,fill_66_leg_sent_32.png,NULL
1744586734,20fc610a4c308799f2f7cfd24025ba8e,PennController,67,0,fill,NULL,PennController,68,_Header_,Start,1744586007250,595bee9282be5500017ad683,146,66,2,fill,leg,_66,During the final match of the season%2C the coach encouraged the team to score in the last quarter.,32,fill_66_leg_sent_32.png,NULL
1744586734,20fc610a4c308799f2f7cfd24025ba8e,PennController,67,0,fill,NULL,PennController,68,_Header_,End,1744586007250,595bee9282be5500017ad683,146,66,2,fill,leg,_66,During the final match of the season%2C the coach encouraged the team to score in the last quarter.,32,fill_66_leg_sent_32.png,NULL
1744586734,20fc610a4c308799f2f7cfd24025ba8e,PennController,67,0,fill,NULL,TextInput,q1,Final,During the final match fo the season the coach encouraged the team to score in the last quarter.,1744586027416,595bee9282be5500017ad683,146,66,2,fill,leg,_66,During the final match of the season%2C the coach encouraged the team to score in the last quarter.,32,fill_66_leg_sent_32.png,NULL
1744586734,20fc610a4c308799f2f7cfd24025ba8e,PennController,67,0,fill,NULL,PennController,68,_Trial_,End,1744586027416,595bee9282be5500017ad683,146,66,2,fill,leg,_66,During the final match of the season%2C the coach encouraged the team to score in the last quarter.,32,fill_66_leg_sent_32.png,NULL
1744586734,20fc610a4c308799f2f7cfd24025ba8e,PennController,13,0,crit,NULL,PennController,14,_Trial_,Start,1744586027417,595bee9282be5500017ad683,92,12,2,crit,ill,_12,Tony is shy around girls as his ties start with no prior warning.,104,crit_12_ill_sent_104.png,NULL
1744586734,20fc610a4c308799f2f7cfd24025ba8e,PennController,13,0,crit,NULL,PennController,14,_Header_,Start,1744586027417,595bee9282be5500017ad683,92,12,2,crit,ill,_12,Tony is shy around girls as his ties start with no prior warning.,104,crit_12_ill_sent_104.png,NULL
1744586734,20fc610a4c308799f2f7cfd24025ba8e,PennController,13,0,crit,NULL,PennController,14,_Header_,End,1744586027417,595bee9282be5500017ad683,92,12,2,crit,ill,_12,Tony is shy around girls as his ties start with no prior warning.,104,crit_12_ill_sent_104.png,NULL
1744586734,20fc610a4c308799f2f7cfd24025ba8e,PennController,13,0,crit,NULL,TextInput,q1,Final,Tonyt is shy around girls as his tics start with no prior warning.,1744586054632,595bee9282be5500017ad683,92,12,2,crit,ill,_12,Tony is shy around girls as his ties start with no prior warning.,104,crit_12_ill_sent_104.png,NULL
1744586734,20fc610a4c308799f2f7cfd24025ba8e,PennController,13,0,crit,NULL,PennController,14,_Trial_,End,1744586054632,595bee9282be5500017ad683,92,12,2,crit,ill,_12,Tony is shy around girls as his ties start with no prior warning.,104,crit_12_ill_sent_104.png,NULL
1744586734,20fc610a4c308799f2f7cfd24025ba8e,PennController,64,0,fill,NULL,PennController,65,_Trial_,Start,1744586054633,595bee9282be5500017ad683,143,63,2,fill,leg,_63,The alum was offended by the solicitor because he asked very personal questions.,119,fill_63_leg_sent_119.png,NULL
1744586734,20fc610a4c308799f2f7cfd24025ba8e,PennController,64,0,fill,NULL,PennController,65,_Header_,Start,1744586054633,595bee9282be5500017ad683,143,63,2,fill,leg,_63,The alum was offended by the solicitor because he asked very personal questions.,119,fill_63_leg_sent_119.png,NULL
1744586734,20fc610a4c308799f2f7cfd24025ba8e,PennController,64,0,fill,NULL,PennController,65,_Header_,End,1744586054633,595bee9282be5500017ad683,143,63,2,fill,leg,_63,The alum was offended by the solicitor because he asked very personal questions.,119,fill_63_leg_sent_119.png,NULL
1744586734,20fc610a4c308799f2f7cfd24025ba8e,PennController,64,0,fill,NULL,TextInput,q1,Final,The alum was offended by the solicitor because he asked very personal questions.,1744586074299,595bee9282be5500017ad683,143,63,2,fill,leg,_63,The alum was offended by the solicitor because he asked very personal questions.,119,fill_63_leg_sent_119.png,NULL
1744586734,20fc610a4c308799f2f7cfd24025ba8e,PennController,64,0,fill,NULL,PennController,65,_Trial_,End,1744586074299,595bee9282be5500017ad683,143,63,2,fill,leg,_63,The alum was offended by the solicitor because he asked very personal questions.,119,fill_63_leg_sent_119.png,NULL
1744586734,20fc610a4c308799f2f7cfd24025ba8e,PennController,42,0,fill,NULL,PennController,43,_Trial_,Start,1744586074301,595bee9282be5500017ad683,121,41,2,fill,leg,_41,The presenter was criticized by a producer because of his speech impediment.,96,fill_41_leg_sent_96.png,NULL
1744586734,20fc610a4c308799f2f7cfd24025ba8e,PennController,42,0,fill,NULL,PennController,43,_Header_,Start,1744586074301,595bee9282be5500017ad683,121,41,2,fill,leg,_41,The presenter was criticized by a producer because of his speech impediment.,96,fill_41_leg_sent_96.png,NULL
1744586734,20fc610a4c308799f2f7cfd24025ba8e,PennController,42,0,fill,NULL,PennController,43,_Header_,End,1744586074301,595bee9282be5500017ad683,121,41,2,fill,leg,_41,The presenter was criticized by a producer because of his speech impediment.,96,fill_41_leg_sent_96.png,NULL
1744586734,20fc610a4c308799f2f7cfd24025ba8e,PennController,42,0,fill,NULL,TextInput,q1,Final,The presenter was criticized by a producer becasue fo his speech impediment.,1744586093165,595bee9282be5500017ad683,121,41,2,fill,leg,_41,The presenter was criticized by a producer because of his speech impediment.,96,fill_41_leg_sent_96.png,NULL
1744586734,20fc610a4c308799f2f7cfd24025ba8e,PennController,42,0,fill,NULL,PennController,43,_Trial_,End,1744586093165,595bee9282be5500017ad683,121,41,2,fill,leg,_41,The presenter was criticized by a producer because of his speech impediment.,96,fill_41_leg_sent_96.png,NULL
1744586734,20fc610a4c308799f2f7cfd24025ba8e,PennController,30,0,fill,NULL,PennController,31,_Trial_,Start,1744586093166,595bee9282be5500017ad683,109,29,2,fill,leg,_29,A socialite was greeted by the waiter with delicious caviar,34,fill_29_leg_sent_34.png,NULL
1744586734,20fc610a4c308799f2f7cfd24025ba8e,PennController,30,0,fill,NULL,PennController,31,_Header_,Start,1744586093166,595bee9282be5500017ad683,109,29,2,fill,leg,_29,A socialite was greeted by the waiter with delicious caviar,34,fill_29_leg_sent_34.png,NULL
1744586734,20fc610a4c308799f2f7cfd24025ba8e,PennController,30,0,fill,NULL,PennController,31,_Header_,End,1744586093166,595bee9282be5500017ad683,109,29,2,fill,leg,_29,A socialite was greeted by the waiter with delicious caviar,34,fill_29_leg_sent_34.png,NULL
1744586734,20fc610a4c308799f2f7cfd24025ba8e,PennController,30,0,fill,NULL,TextInput,q1,Final,A socialite was greeted by the waiter with delicious caviar.,1744586111513,595bee9282be5500017ad683,109,29,2,fill,leg,_29,A socialite was greeted by the waiter with delicious caviar,34,fill_29_leg_sent_34.png,NULL
1744586734,20fc610a4c308799f2f7cfd24025ba8e,PennController,30,0,fill,NULL,PennController,31,_Trial_,End,1744586111513,595bee9282be5500017ad683,109,29,2,fill,leg,_29,A socialite was greeted by the waiter with delicious caviar,34,fill_29_leg_sent_34.png,NULL
1744586734,20fc610a4c308799f2f7cfd24025ba8e,PennController,10,0,crit,NULL,PennController,11,_Trial_,Start,1744586111513,595bee9282be5500017ad683,89,9,2,crit,ill,_09,My mom wants me to do so many chores and naps me if I dont finish them quickly.,22,crit_09_ill_sent_22.png,NULL
1744586734,20fc610a4c308799f2f7cfd24025ba8e,PennController,10,0,crit,NULL,PennController,11,_Header_,Start,1744586111513,595bee9282be5500017ad683,89,9,2,crit,ill,_09,My mom wants me to do so many chores and naps me if I dont finish them quickly.,22,crit_09_ill_sent_22.png,NULL
1744586734,20fc610a4c308799f2f7cfd24025ba8e,PennController,10,0,crit,NULL,PennController,11,_Header_,End,1744586111513,595bee9282be5500017ad683,89,9,2,crit,ill,_09,My mom wants me to do so many chores and naps me if I dont finish them quickly.,22,crit_09_ill_sent_22.png,NULL
1744586734,20fc610a4c308799f2f7cfd24025ba8e,PennController,10,0,crit,NULL,TextInput,q1,Final,My mom wants me to do so many chores and rapsme if I don't finish them quickly.,1744586181515,595bee9282be5500017ad683,89,9,2,crit,ill,_09,My mom wants me to do so many chores and naps me if I dont finish them quickly.,22,crit_09_ill_sent_22.png,NULL
1744586734,20fc610a4c308799f2f7cfd24025ba8e,PennController,10,0,crit,NULL,PennController,11,_Trial_,End,1744586181515,595bee9282be5500017ad683,89,9,2,crit,ill,_09,My mom wants me to do so many chores and naps me if I dont finish them quickly.,22,crit_09_ill_sent_22.png,NULL
1744586734,20fc610a4c308799f2f7cfd24025ba8e,PennController,23,0,fill,NULL,PennController,24,_Trial_,Start,1744586181517,595bee9282be5500017ad683,102,22,2,fill,leg,_22,Yesterday the commissioner wrote a document for the chairman.,50,fill_22_leg_sent_50.png,NULL
1744586734,20fc610a4c308799f2f7cfd24025ba8e,PennController,23,0,fill,NULL,PennController,24,_Header_,Start,1744586181517,595bee9282be5500017ad683,102,22,2,fill,leg,_22,Yesterday the commissioner wrote a document for the chairman.,50,fill_22_leg_sent_50.png,NULL
1744586734,20fc610a4c308799f2f7cfd24025ba8e,PennController,23,0,fill,NULL,PennController,24,_Header_,End,1744586181517,595bee9282be5500017ad683,102,22,2,fill,leg,_22,Yesterday the commissioner wrote a document for the chairman.,50,fill_22_leg_sent_50.png,NULL
1744586734,20fc610a4c308799f2f7cfd24025ba8e,PennController,23,0,fill,NULL,TextInput,q1,Final,Yesterday%2C the commissioner wrote a document for the chairman.,1744586199482,595bee9282be5500017ad683,102,22,2,fill,leg,_22,Yesterday the commissioner wrote a document for the chairman.,50,fill_22_leg_sent_50.png,NULL
1744586734,20fc610a4c308799f2f7cfd24025ba8e,PennController,23,0,fill,NULL,PennController,24,_Trial_,End,1744586199482,595bee9282be5500017ad683,102,22,2,fill,leg,_22,Yesterday the commissioner wrote a document for the chairman.,50,fill_22_leg_sent_50.png,NULL
1744586734,20fc610a4c308799f2f7cfd24025ba8e,PennController,38,0,fill,NULL,PennController,39,_Trial_,Start,1744586199483,595bee9282be5500017ad683,117,37,2,fill,leg,_37,Because the ballerina went to Juilliard%2C the acrobat respected her.,105,fill_37_leg_sent_105.png,NULL
1744586734,20fc610a4c308799f2f7cfd24025ba8e,PennController,38,0,fill,NULL,PennController,39,_Header_,Start,1744586199483,595bee9282be5500017ad683,117,37,2,fill,leg,_37,Because the ballerina went to Juilliard%2C the acrobat respected her.,105,fill_37_leg_sent_105.png,NULL
1744586734,20fc610a4c308799f2f7cfd24025ba8e,PennController,38,0,fill,NULL,PennController,39,_Header_,End,1744586199483,595bee9282be5500017ad683,117,37,2,fill,leg,_37,Because the ballerina went to Juilliard%2C the acrobat respected her.,105,fill_37_leg_sent_105.png,NULL
1744586734,20fc610a4c308799f2f7cfd24025ba8e,PennController,38,0,fill,NULL,TextInput,q1,Final,Because the ballerina went to Julliard%2C the acrobat respected her.,1744586226250,595bee9282be5500017ad683,117,37,2,fill,leg,_37,Because the ballerina went to Juilliard%2C the acrobat respected her.,105,fill_37_leg_sent_105.png,NULL
1744586734,20fc610a4c308799f2f7cfd24025ba8e,PennController,38,0,fill,NULL,PennController,39,_Trial_,End,1744586226250,595bee9282be5500017ad683,117,37,2,fill,leg,_37,Because the ballerina went to Juilliard%2C the acrobat respected her.,105,fill_37_leg_sent_105.png,NULL
1744586734,20fc610a4c308799f2f7cfd24025ba8e,PennController,75,0,fill,NULL,PennController,76,_Trial_,Start,1744586226251,595bee9282be5500017ad683,154,74,2,fill,leg,_74,The daughter pestered the son.,39,fill_74_leg_sent_39.png,NULL
1744586734,20fc610a4c308799f2f7cfd24025ba8e,PennController,75,0,fill,NULL,PennController,76,_Header_,Start,1744586226251,595bee9282be5500017ad683,154,74,2,fill,leg,_74,The daughter pestered the son.,39,fill_74_leg_sent_39.png,NULL
1744586734,20fc610a4c308799f2f7cfd24025ba8e,PennController,75,0,fill,NULL,PennController,76,_Header_,End,1744586226251,595bee9282be5500017ad683,154,74,2,fill,leg,_74,The daughter pestered the son.,39,fill_74_leg_sent_39.png,NULL
1744586734,20fc610a4c308799f2f7cfd24025ba8e,PennController,75,0,fill,NULL,TextInput,q1,Final,The daugter pestered the son.,1744586239446,595bee9282be5500017ad683,154,74,2,fill,leg,_74,The daughter pestered the son.,39,fill_74_leg_sent_39.png,NULL
1744586734,20fc610a4c308799f2f7cfd24025ba8e,PennController,75,0,fill,NULL,PennController,76,_Trial_,End,1744586239446,595bee9282be5500017ad683,154,74,2,fill,leg,_74,The daughter pestered the son.,39,fill_74_leg_sent_39.png,NULL
1744586734,20fc610a4c308799f2f7cfd24025ba8e,PennController,19,0,crit,NULL,PennController,20,_Trial_,Start,1744586239447,595bee9282be5500017ad683,98,18,2,crit,ill,_18,Storms were reported hear our coast%2C so we were advised to stay safe,122,crit_18_ill_sent_122.png,NULL
1744586734,20fc610a4c308799f2f7cfd24025ba8e,PennController,19,0,crit,NULL,PennController,20,_Header_,Start,1744586239447,595bee9282be5500017ad683,98,18,2,crit,ill,_18,Storms were reported hear our coast%2C so we were advised to stay safe,122,crit_18_ill_sent_122.png,NULL
1744586734,20fc610a4c308799f2f7cfd24025ba8e,PennController,19,0,crit,NULL,PennController,20,_Header_,End,1744586239447,595bee9282be5500017ad683,98,18,2,crit,ill,_18,Storms were reported hear our coast%2C so we were advised to stay safe,122,crit_18_ill_sent_122.png,NULL
1744586734,20fc610a4c308799f2f7cfd24025ba8e,PennController,19,0,crit,NULL,TextInput,q1,Final,Storms were reported near our coast%2C so we were advised to stay safe.,1744586301149,595bee9282be5500017ad683,98,18,2,crit,ill,_18,Storms were reported hear our coast%2C so we were advised to stay safe,122,crit_18_ill_sent_122.png,NULL
1744586734,20fc610a4c308799f2f7cfd24025ba8e,PennController,19,0,crit,NULL,PennController,20,_Trial_,End,1744586301149,595bee9282be5500017ad683,98,18,2,crit,ill,_18,Storms were reported hear our coast%2C so we were advised to stay safe,122,crit_18_ill_sent_122.png,NULL
1744586734,20fc610a4c308799f2f7cfd24025ba8e,PennController,70,0,fill,NULL,PennController,71,_Trial_,Start,1744586301150,595bee9282be5500017ad683,149,69,2,fill,leg,_69,The doctor held the woman.,119,fill_69_leg_sent_119.png,NULL
1744586734,20fc610a4c308799f2f7cfd24025ba8e,PennController,70,0,fill,NULL,PennController,71,_Header_,Start,1744586301150,595bee9282be5500017ad683,149,69,2,fill,leg,_69,The doctor held the woman.,119,fill_69_leg_sent_119.png,NULL
1744586734,20fc610a4c308799f2f7cfd24025ba8e,PennController,70,0,fill,NULL,PennController,71,_Header_,End,1744586301150,595bee9282be5500017ad683,149,69,2,fill,leg,_69,The doctor held the woman.,119,fill_69_leg_sent_119.png,NULL
1744586734,20fc610a4c308799f2f7cfd24025ba8e,PennController,70,0,fill,NULL,TextInput,q1,Final,The doctor held the woman.,1744586309164,595bee9282be5500017ad683,149,69,2,fill,leg,_69,The doctor held the woman.,119,fill_69_leg_sent_119.png,NULL
1744586734,20fc610a4c308799f2f7cfd24025ba8e,PennController,70,0,fill,NULL,PennController,71,_Trial_,End,1744586309164,595bee9282be5500017ad683,149,69,2,fill,leg,_69,The doctor held the woman.,119,fill_69_leg_sent_119.png,NULL
1744586734,20fc610a4c308799f2f7cfd24025ba8e,PennController,78,0,fill,NULL,PennController,79,_Trial_,Start,1744586309165,595bee9282be5500017ad683,157,77,2,fill,leg,_77,The wife was ignored by the husband.,109,fill_77_leg_sent_109.png,NULL
1744586734,20fc610a4c308799f2f7cfd24025ba8e,PennController,78,0,fill,NULL,PennController,79,_Header_,Start,1744586309165,595bee9282be5500017ad683,157,77,2,fill,leg,_77,The wife was ignored by the husband.,109,fill_77_leg_sent_109.png,NULL
1744586734,20fc610a4c308799f2f7cfd24025ba8e,PennController,78,0,fill,NULL,PennController,79,_Header_,End,1744586309165,595bee9282be5500017ad683,157,77,2,fill,leg,_77,The wife was ignored by the husband.,109,fill_77_leg_sent_109.png,NULL
1744586734,20fc610a4c308799f2f7cfd24025ba8e,PennController,78,0,fill,NULL,TextInput,q1,Final,The wife was ignored by the husband.,1744586321399,595bee9282be5500017ad683,157,77,2,fill,leg,_77,The wife was ignored by the husband.,109,fill_77_leg_sent_109.png,NULL
1744586734,20fc610a4c308799f2f7cfd24025ba8e,PennController,78,0,fill,NULL,PennController,79,_Trial_,End,1744586321399,595bee9282be5500017ad683,157,77,2,fill,leg,_77,The wife was ignored by the husband.,109,fill_77_leg_sent_109.png,NULL
1744586734,20fc610a4c308799f2f7cfd24025ba8e,PennController,32,0,fill,NULL,PennController,33,_Trial_,Start,1744586321401,595bee9282be5500017ad683,111,31,2,fill,leg,_31,Because of his bravery%2C the colonel was knighted by the monarch.,62,fill_31_leg_sent_62.png,NULL
1744586734,20fc610a4c308799f2f7cfd24025ba8e,PennController,32,0,fill,NULL,PennController,33,_Header_,Start,1744586321401,595bee9282be5500017ad683,111,31,2,fill,leg,_31,Because of his bravery%2C the colonel was knighted by the monarch.,62,fill_31_leg_sent_62.png,NULL
1744586734,20fc610a4c308799f2f7cfd24025ba8e,PennController,32,0,fill,NULL,PennController,33,_Header_,End,1744586321401,595bee9282be5500017ad683,111,31,2,fill,leg,_31,Because of his bravery%2C the colonel was knighted by the monarch.,62,fill_31_leg_sent_62.png,NULL
1744586734,20fc610a4c308799f2f7cfd24025ba8e,PennController,32,0,fill,NULL,TextInput,q1,Final,Because of his bravery%2C the colonel was knighted by the monarch.,1744586351015,595bee9282be5500017ad683,111,31,2,fill,leg,_31,Because of his bravery%2C the colonel was knighted by the monarch.,62,fill_31_leg_sent_62.png,NULL
1744586734,20fc610a4c308799f2f7cfd24025ba8e,PennController,32,0,fill,NULL,PennController,33,_Trial_,End,1744586351015,595bee9282be5500017ad683,111,31,2,fill,leg,_31,Because of his bravery%2C the colonel was knighted by the monarch.,62,fill_31_leg_sent_62.png,NULL
1744586734,20fc610a4c308799f2f7cfd24025ba8e,PennController,15,0,crit,NULL,PennController,16,_Trial_,Start,1744586351017,595bee9282be5500017ad683,94,14,2,crit,ill,_14,This job will lead to a rain in skill and confidence.,11,crit_14_ill_sent_11.png,NULL
1744586734,20fc610a4c308799f2f7cfd24025ba8e,PennController,15,0,crit,NULL,PennController,16,_Header_,Start,1744586351017,595bee9282be5500017ad683,94,14,2,crit,ill,_14,This job will lead to a rain in skill and confidence.,11,crit_14_ill_sent_11.png,NULL
1744586734,20fc610a4c308799f2f7cfd24025ba8e,PennController,15,0,crit,NULL,PennController,16,_Header_,End,1744586351017,595bee9282be5500017ad683,94,14,2,crit,ill,_14,This job will lead to a rain in skill and confidence.,11,crit_14_ill_sent_11.png,NULL
1744586734,20fc610a4c308799f2f7cfd24025ba8e,PennController,15,0,crit,NULL,TextInput,q1,Final,This job will lead to a rain in skill and confidence.,1744586405782,595bee9282be5500017ad683,94,14,2,crit,ill,_14,This job will lead to a rain in skill and confidence.,11,crit_14_ill_sent_11.png,NULL
1744586734,20fc610a4c308799f2f7cfd24025ba8e,PennController,15,0,crit,NULL,PennController,16,_Trial_,End,1744586405782,595bee9282be5500017ad683,94,14,2,crit,ill,_14,This job will lead to a rain in skill and confidence.,11,crit_14_ill_sent_11.png,NULL
1744586734,20fc610a4c308799f2f7cfd24025ba8e,PennController,45,0,fill,NULL,PennController,46,_Trial_,Start,1744586405784,595bee9282be5500017ad683,124,44,2,fill,leg,_44,The choreographer found a movie starring his favorite actress.,47,fill_44_leg_sent_47.png,NULL
1744586734,20fc610a4c308799f2f7cfd24025ba8e,PennController,45,0,fill,NULL,PennController,46,_Header_,Start,1744586405784,595bee9282be5500017ad683,124,44,2,fill,leg,_44,The choreographer found a movie starring his favorite actress.,47,fill_44_leg_sent_47.png,NULL
1744586734,20fc610a4c308799f2f7cfd24025ba8e,PennController,45,0,fill,NULL,PennController,46,_Header_,End,1744586405784,595bee9282be5500017ad683,124,44,2,fill,leg,_44,The choreographer found a movie starring his favorite actress.,47,fill_44_leg_sent_47.png,NULL
1744586734,20fc610a4c308799f2f7cfd24025ba8e,PennController,45,0,fill,NULL,TextInput,q1,Final,The coreographer found a movie starring his favorite actress.,1744586420549,595bee9282be5500017ad683,124,44,2,fill,leg,_44,The choreographer found a movie starring his favorite actress.,47,fill_44_leg_sent_47.png,NULL
1744586734,20fc610a4c308799f2f7cfd24025ba8e,PennController,45,0,fill,NULL,PennController,46,_Trial_,End,1744586420549,595bee9282be5500017ad683,124,44,2,fill,leg,_44,The choreographer found a movie starring his favorite actress.,47,fill_44_leg_sent_47.png,NULL
1744586734,20fc610a4c308799f2f7cfd24025ba8e,PennController,40,0,fill,NULL,PennController,41,_Trial_,Start,1744586420550,595bee9282be5500017ad683,119,39,2,fill,leg,_39,As the robot escaped from the laboratory%2C he murdered a scientist.,62,fill_39_leg_sent_62.png,NULL
1744586734,20fc610a4c308799f2f7cfd24025ba8e,PennController,40,0,fill,NULL,PennController,41,_Header_,Start,1744586420550,595bee9282be5500017ad683,119,39,2,fill,leg,_39,As the robot escaped from the laboratory%2C he murdered a scientist.,62,fill_39_leg_sent_62.png,NULL
1744586734,20fc610a4c308799f2f7cfd24025ba8e,PennController,40,0,fill,NULL,PennController,41,_Header_,End,1744586420550,595bee9282be5500017ad683,119,39,2,fill,leg,_39,As the robot escaped from the laboratory%2C he murdered a scientist.,62,fill_39_leg_sent_62.png,NULL
1744586734,20fc610a4c308799f2f7cfd24025ba8e,PennController,40,0,fill,NULL,TextInput,q1,Final,As the robot excaped from the laboratory%2C he murdered a scientist.,1744586438082,595bee9282be5500017ad683,119,39,2,fill,leg,_39,As the robot escaped from the laboratory%2C he murdered a scientist.,62,fill_39_leg_sent_62.png,NULL
1744586734,20fc610a4c308799f2f7cfd24025ba8e,PennController,40,0,fill,NULL,PennController,41,_Trial_,End,1744586438082,595bee9282be5500017ad683,119,39,2,fill,leg,_39,As the robot escaped from the laboratory%2C he murdered a scientist.,62,fill_39_leg_sent_62.png,NULL
1744586734,20fc610a4c308799f2f7cfd24025ba8e,PennController,69,0,fill,NULL,PennController,70,_Trial_,Start,1744586438084,595bee9282be5500017ad683,148,68,2,fill,leg,_68,After the meeting%2C the sergeant assigned a locker to the private.,119,fill_68_leg_sent_119.png,NULL
1744586734,20fc610a4c308799f2f7cfd24025ba8e,PennController,69,0,fill,NULL,PennController,70,_Header_,Start,1744586438084,595bee9282be5500017ad683,148,68,2,fill,leg,_68,After the meeting%2C the sergeant assigned a locker to the private.,119,fill_68_leg_sent_119.png,NULL
1744586734,20fc610a4c308799f2f7cfd24025ba8e,PennController,69,0,fill,NULL,PennController,70,_Header_,End,1744586438084,595bee9282be5500017ad683,148,68,2,fill,leg,_68,After the meeting%2C the sergeant assigned a locker to the private.,119,fill_68_leg_sent_119.png,NULL
1744586734,20fc610a4c308799f2f7cfd24025ba8e,PennController,69,0,fill,NULL,TextInput,q1,Final,After the meeting%2C the sergeant assigned a locker to the private.,1744586455266,595bee9282be5500017ad683,148,68,2,fill,leg,_68,After the meeting%2C the sergeant assigned a locker to the private.,119,fill_68_leg_sent_119.png,NULL
1744586734,20fc610a4c308799f2f7cfd24025ba8e,PennController,69,0,fill,NULL,PennController,70,_Trial_,End,1744586455267,595bee9282be5500017ad683,148,68,2,fill,leg,_68,After the meeting%2C the sergeant assigned a locker to the private.,119,fill_68_leg_sent_119.png,NULL
1744586734,20fc610a4c308799f2f7cfd24025ba8e,PennController,21,0,crit,NULL,PennController,22,_Trial_,Start,1744586455268,595bee9282be5500017ad683,100,20,2,crit,ill,_20,In 1390%2C King Richard II built a meat circling his city,75,crit_20_ill_sent_75.png,NULL
1744586734,20fc610a4c308799f2f7cfd24025ba8e,PennController,21,0,crit,NULL,PennController,22,_Header_,Start,1744586455268,595bee9282be5500017ad683,100,20,2,crit,ill,_20,In 1390%2C King Richard II built a meat circling his city,75,crit_20_ill_sent_75.png,NULL
1744586734,20fc610a4c308799f2f7cfd24025ba8e,PennController,21,0,crit,NULL,PennController,22,_Header_,End,1744586455268,595bee9282be5500017ad683,100,20,2,crit,ill,_20,In 1390%2C King Richard II built a meat circling his city,75,crit_20_ill_sent_75.png,NULL
1744586734,20fc610a4c308799f2f7cfd24025ba8e,PennController,21,0,crit,NULL,TextInput,q1,Final,In 1390%2C King Richard built a moat circling his city.,1744586475032,595bee9282be5500017ad683,100,20,2,crit,ill,_20,In 1390%2C King Richard II built a meat circling his city,75,crit_20_ill_sent_75.png,NULL
1744586734,20fc610a4c308799f2f7cfd24025ba8e,PennController,21,0,crit,NULL,PennController,22,_Trial_,End,1744586475032,595bee9282be5500017ad683,100,20,2,crit,ill,_20,In 1390%2C King Richard II built a meat circling his city,75,crit_20_ill_sent_75.png,NULL
1744586734,20fc610a4c308799f2f7cfd24025ba8e,PennController,62,0,fill,NULL,PennController,63,_Trial_,Start,1744586475034,595bee9282be5500017ad683,141,61,2,fill,leg,_61,The jewelry-maker was commissioned by the millionaire.,123,fill_61_leg_sent_123.png,NULL
1744586734,20fc610a4c308799f2f7cfd24025ba8e,PennController,62,0,fill,NULL,PennController,63,_Header_,Start,1744586475034,595bee9282be5500017ad683,141,61,2,fill,leg,_61,The jewelry-maker was commissioned by the millionaire.,123,fill_61_leg_sent_123.png,NULL
